Trial_Nr,Trial_Id,answer,cue,reaction_time,target,target_pos_match,XGazeError,End_Time,Exp_Subject_Id,Is_Fullscreen,Start_Time,label,target_pos,target_match,accuracy,error
6,128,L,invalid,700,occhiali,right_match,27.16512468,2021-12-20T13:03:17Z,339184,TRUE,2021-12-20T12:46:13Z,word,right,match,1,13.194444444444445
15,118,L,invalid,499,banana,right_match,27.16512468,2021-12-20T13:03:17Z,339184,TRUE,2021-12-20T12:46:13Z,word,right,match,1,13.194444444444445
20,49,A,invalid,342,mucca,left_match,27.16512468,2021-12-20T13:03:17Z,339184,TRUE,2021-12-20T12:46:13Z,word,left,match,1,13.194444444444445
36,124,L,invalid,546,frullatore,right_match,27.16512468,2021-12-20T13:03:17Z,339184,TRUE,2021-12-20T12:46:13Z,word,right,match,1,13.194444444444445
38,40,A,invalid,463,banana,left_match,27.16512468,2021-12-20T13:03:17Z,339184,TRUE,2021-12-20T12:46:13Z,word,left,match,1,13.194444444444445
39,52,A,invalid,551,pistola,left_match,27.16512468,2021-12-20T13:03:17Z,339184,TRUE,2021-12-20T12:46:13Z,word,left,match,1,13.194444444444445
40,137,L,invalid,503,uva,right_match,27.16512468,2021-12-20T13:03:17Z,339184,TRUE,2021-12-20T12:46:13Z,word,right,match,1,13.194444444444445
45,41,A,invalid,590,bicchiere,left_match,27.16512468,2021-12-20T13:03:17Z,339184,TRUE,2021-12-20T12:46:13Z,word,left,match,1,13.194444444444445
63,135,L,invalid,516,telefono,right_match,27.16512468,2021-12-20T13:03:17Z,339184,TRUE,2021-12-20T12:46:13Z,word,right,match,1,13.194444444444445
69,123,L,invalid,542,coniglio,right_match,27.16512468,2021-12-20T13:03:17Z,339184,TRUE,2021-12-20T12:46:13Z,word,right,match,1,13.194444444444445
78,131,L,invalid,720,pomodoro,right_match,27.16512468,2021-12-20T13:03:17Z,339184,TRUE,2021-12-20T12:46:13Z,word,right,match,1,13.194444444444445
88,122,L,invalid,483,chiave,right_match,27.16512468,2021-12-20T13:03:17Z,339184,TRUE,2021-12-20T12:46:13Z,word,right,match,1,13.194444444444445
100,59,A,invalid,491,uva,left_match,27.16512468,2021-12-20T13:03:17Z,339184,TRUE,2021-12-20T12:46:13Z,word,left,match,1,13.194444444444445
105,126,L,invalid,486,melone,right_match,27.16512468,2021-12-20T13:03:17Z,339184,TRUE,2021-12-20T12:46:13Z,word,right,match,1,13.194444444444445
120,125,L,invalid,482,mandorla,right_match,27.16512468,2021-12-20T13:03:17Z,339184,TRUE,2021-12-20T12:46:13Z,word,right,match,1,13.194444444444445
125,42,A,invalid,638,cane,left_match,27.16512468,2021-12-20T13:03:17Z,339184,TRUE,2021-12-20T12:46:13Z,word,left,match,1,13.194444444444445
126,136,L,invalid,533,termometro,right_match,27.16512468,2021-12-20T13:03:17Z,339184,TRUE,2021-12-20T12:46:13Z,word,right,match,1,13.194444444444445
137,57,A,invalid,385,telefono,left_match,27.16512468,2021-12-20T13:03:17Z,339184,TRUE,2021-12-20T12:46:13Z,word,left,match,1,13.194444444444445
140,47,A,invalid,468,mandorla,left_match,27.16512468,2021-12-20T13:03:17Z,339184,TRUE,2021-12-20T12:46:13Z,word,left,match,1,13.194444444444445
8,202,A,invalid,638,frullatore,left_mismatch,27.16512468,2021-12-20T13:03:17Z,339184,TRUE,2021-12-20T12:46:13Z,word,left,mismatch,1,12.5
11,200,A,invalid,620,chiave,left_mismatch,27.16512468,2021-12-20T13:03:17Z,339184,TRUE,2021-12-20T12:46:13Z,word,left,mismatch,1,12.5
35,208,A,invalid,559,pistola,left_mismatch,27.16512468,2021-12-20T13:03:17Z,339184,TRUE,2021-12-20T12:46:13Z,word,left,mismatch,1,12.5
43,209,A,invalid,458,pomodoro,left_mismatch,27.16512468,2021-12-20T13:03:17Z,339184,TRUE,2021-12-20T12:46:13Z,word,left,mismatch,1,12.5
49,289,L,invalid,425,tartaruga,right_mismatch,27.16512468,2021-12-20T13:03:17Z,339184,TRUE,2021-12-20T12:46:13Z,word,right,mismatch,1,12.5
59,274,L,invalid,470,banana,right_mismatch,27.16512468,2021-12-20T13:03:17Z,339184,TRUE,2021-12-20T12:46:13Z,word,right,mismatch,1,12.5
60,212,A,invalid,506,telecomando,left_mismatch,27.16512468,2021-12-20T13:03:17Z,339184,TRUE,2021-12-20T12:46:13Z,word,left,mismatch,1,12.5
62,204,A,invalid,612,melone,left_mismatch,27.16512468,2021-12-20T13:03:17Z,339184,TRUE,2021-12-20T12:46:13Z,word,left,mismatch,1,12.5
64,210,A,invalid,454,rasoio,left_mismatch,27.16512468,2021-12-20T13:03:17Z,339184,TRUE,2021-12-20T12:46:13Z,word,left,mismatch,1,12.5
68,215,A,invalid,370,uva,left_mismatch,27.16512468,2021-12-20T13:03:17Z,339184,TRUE,2021-12-20T12:46:13Z,word,left,mismatch,1,12.5
82,277,L,invalid,604,cervo,right_mismatch,27.16512468,2021-12-20T13:03:17Z,339184,TRUE,2021-12-20T12:46:13Z,word,right,mismatch,1,12.5
102,207,A,invalid,412,pinza,left_mismatch,27.16512468,2021-12-20T13:03:17Z,339184,TRUE,2021-12-20T12:46:13Z,word,left,mismatch,1,12.5
103,214,A,invalid,565,termometro,left_mismatch,27.16512468,2021-12-20T13:03:17Z,339184,TRUE,2021-12-20T12:46:13Z,word,left,mismatch,1,12.5
123,213,A,invalid,623,telefono,left_mismatch,27.16512468,2021-12-20T13:03:17Z,339184,TRUE,2021-12-20T12:46:13Z,word,left,mismatch,1,12.5
127,285,L,invalid,495,pinza,right_mismatch,27.16512468,2021-12-20T13:03:17Z,339184,TRUE,2021-12-20T12:46:13Z,word,right,mismatch,1,12.5
128,279,L,invalid,487,coniglio,right_mismatch,27.16512468,2021-12-20T13:03:17Z,339184,TRUE,2021-12-20T12:46:13Z,word,right,mismatch,1,12.5
129,282,L,invalid,505,melone,right_mismatch,27.16512468,2021-12-20T13:03:17Z,339184,TRUE,2021-12-20T12:46:13Z,word,right,mismatch,1,12.5
132,197,A,invalid,508,bicchiere,left_mismatch,27.16512468,2021-12-20T13:03:17Z,339184,TRUE,2021-12-20T12:46:13Z,word,left,mismatch,1,12.5
14,79,L,valid,412,banana,right_match,27.16512468,2021-12-20T13:03:17Z,339184,TRUE,2021-12-20T12:46:13Z,word,right,match,1,11.11111111111111
16,10,A,valid,492,mucca,left_match,27.16512468,2021-12-20T13:03:17Z,339184,TRUE,2021-12-20T12:46:13Z,word,left,match,1,11.11111111111111
37,93,L,valid,469,rasoio,right_match,27.16512468,2021-12-20T13:03:17Z,339184,TRUE,2021-12-20T12:46:13Z,word,right,match,1,11.11111111111111
44,81,L,valid,474,cane,right_match,27.16512468,2021-12-20T13:03:17Z,339184,TRUE,2021-12-20T12:46:13Z,word,right,match,1,11.11111111111111
55,7,A,valid,464,frullatore,left_match,27.16512468,2021-12-20T13:03:17Z,339184,TRUE,2021-12-20T12:46:13Z,word,left,match,1,11.11111111111111
61,9,A,valid,590,melone,left_match,27.16512468,2021-12-20T13:03:17Z,339184,TRUE,2021-12-20T12:46:13Z,word,left,match,1,11.11111111111111
66,98,L,valid,546,uva,right_match,27.16512468,2021-12-20T13:03:17Z,339184,TRUE,2021-12-20T12:46:13Z,word,right,match,1,11.11111111111111
89,82,L,valid,436,cervo,right_match,27.16512468,2021-12-20T13:03:17Z,339184,TRUE,2021-12-20T12:46:13Z,word,right,match,1,11.11111111111111
91,95,L,valid,496,telecomando,right_match,27.16512468,2021-12-20T13:03:17Z,339184,TRUE,2021-12-20T12:46:13Z,word,right,match,1,11.11111111111111
93,14,A,valid,490,pomodoro,left_match,27.16512468,2021-12-20T13:03:17Z,339184,TRUE,2021-12-20T12:46:13Z,word,left,match,1,11.11111111111111
96,96,L,valid,443,telefono,right_match,27.16512468,2021-12-20T13:03:17Z,339184,TRUE,2021-12-20T12:46:13Z,word,right,match,1,11.11111111111111
104,18,A,valid,509,telefono,left_match,27.16512468,2021-12-20T13:03:17Z,339184,TRUE,2021-12-20T12:46:13Z,word,left,match,1,11.11111111111111
110,91,L,valid,507,pistola,right_match,27.16512468,2021-12-20T13:03:17Z,339184,TRUE,2021-12-20T12:46:13Z,word,right,match,1,11.11111111111111
134,92,L,valid,439,pomodoro,right_match,27.16512468,2021-12-20T13:03:17Z,339184,TRUE,2021-12-20T12:46:13Z,word,right,match,1,11.11111111111111
136,88,L,valid,467,mucca,right_match,27.16512468,2021-12-20T13:03:17Z,339184,TRUE,2021-12-20T12:46:13Z,word,right,match,1,11.11111111111111
143,97,L,valid,539,termometro,right_match,27.16512468,2021-12-20T13:03:17Z,339184,TRUE,2021-12-20T12:46:13Z,word,right,match,1,11.11111111111111
9,163,A,valid,468,frullatore,left_mismatch,27.16512468,2021-12-20T13:03:17Z,339184,TRUE,2021-12-20T12:46:13Z,word,left,mismatch,1,13.194444444444445
13,243,L,valid,466,melone,right_mismatch,27.16512468,2021-12-20T13:03:17Z,339184,TRUE,2021-12-20T12:46:13Z,word,right,mismatch,1,13.194444444444445
22,171,A,valid,521,rasoio,left_mismatch,27.16512468,2021-12-20T13:03:17Z,339184,TRUE,2021-12-20T12:46:13Z,word,left,mismatch,1,13.194444444444445
24,168,A,valid,464,pinza,left_mismatch,27.16512468,2021-12-20T13:03:17Z,339184,TRUE,2021-12-20T12:46:13Z,word,left,mismatch,1,13.194444444444445
25,245,L,valid,513,occhiali,right_mismatch,27.16512468,2021-12-20T13:03:17Z,339184,TRUE,2021-12-20T12:46:13Z,word,right,mismatch,1,13.194444444444445
47,239,L,valid,486,chiave,right_mismatch,27.16512468,2021-12-20T13:03:17Z,339184,TRUE,2021-12-20T12:46:13Z,word,right,mismatch,1,13.194444444444445
48,172,A,valid,470,tartaruga,left_mismatch,27.16512468,2021-12-20T13:03:17Z,339184,TRUE,2021-12-20T12:46:13Z,word,left,mismatch,1,13.194444444444445
51,162,A,valid,471,coniglio,left_mismatch,27.16512468,2021-12-20T13:03:17Z,339184,TRUE,2021-12-20T12:46:13Z,word,left,mismatch,1,13.194444444444445
57,159,A,valid,508,cane,left_mismatch,27.16512468,2021-12-20T13:03:17Z,339184,TRUE,2021-12-20T12:46:13Z,word,left,mismatch,1,13.194444444444445
58,157,A,valid,504,banana,left_mismatch,27.16512468,2021-12-20T13:03:17Z,339184,TRUE,2021-12-20T12:46:13Z,word,left,mismatch,1,13.194444444444445
65,240,L,valid,409,coniglio,right_mismatch,27.16512468,2021-12-20T13:03:17Z,339184,TRUE,2021-12-20T12:46:13Z,word,right,mismatch,1,13.194444444444445
76,241,L,valid,558,frullatore,right_mismatch,27.16512468,2021-12-20T13:03:17Z,339184,TRUE,2021-12-20T12:46:13Z,word,right,mismatch,1,13.194444444444445
90,174,A,valid,495,telefono,left_mismatch,27.16512468,2021-12-20T13:03:17Z,339184,TRUE,2021-12-20T12:46:13Z,word,left,mismatch,1,13.194444444444445
101,247,L,valid,456,pistola,right_mismatch,27.16512468,2021-12-20T13:03:17Z,339184,TRUE,2021-12-20T12:46:13Z,word,right,mismatch,1,13.194444444444445
108,244,L,valid,392,mucca,right_mismatch,27.16512468,2021-12-20T13:03:17Z,339184,TRUE,2021-12-20T12:46:13Z,word,right,mismatch,1,13.194444444444445
114,252,L,valid,632,telefono,right_mismatch,27.16512468,2021-12-20T13:03:17Z,339184,TRUE,2021-12-20T12:46:13Z,word,right,mismatch,1,13.194444444444445
116,236,L,valid,416,bicchiere,right_mismatch,27.16512468,2021-12-20T13:03:17Z,339184,TRUE,2021-12-20T12:46:13Z,word,right,mismatch,1,13.194444444444445
121,164,A,valid,483,mandorla,left_mismatch,27.16512468,2021-12-20T13:03:17Z,339184,TRUE,2021-12-20T12:46:13Z,word,left,mismatch,1,13.194444444444445
135,253,L,valid,471,termometro,right_mismatch,27.16512468,2021-12-20T13:03:17Z,339184,TRUE,2021-12-20T12:46:13Z,word,right,mismatch,1,13.194444444444445
23,137,L,invalid,343,uva,right_match,53.20051056,2021-12-20T13:06:13Z,339186,TRUE,2021-12-20T12:46:40Z,word,right,match,1,13.88888888888889
28,126,L,invalid,420,melone,right_match,53.20051056,2021-12-20T13:06:13Z,339186,TRUE,2021-12-20T12:46:40Z,word,right,match,1,13.88888888888889
30,55,A,invalid,439,tartaruga,left_match,53.20051056,2021-12-20T13:06:13Z,339186,TRUE,2021-12-20T12:46:40Z,word,left,match,1,13.88888888888889
36,45,A,invalid,351,coniglio,left_match,53.20051056,2021-12-20T13:06:13Z,339186,TRUE,2021-12-20T12:46:40Z,word,left,match,1,13.88888888888889
48,122,L,invalid,420,chiave,right_match,53.20051056,2021-12-20T13:06:13Z,339186,TRUE,2021-12-20T12:46:40Z,word,right,match,1,13.88888888888889
51,46,A,invalid,335,frullatore,left_match,53.20051056,2021-12-20T13:06:13Z,339186,TRUE,2021-12-20T12:46:40Z,word,left,match,1,13.88888888888889
75,51,A,invalid,581,pinza,left_match,53.20051056,2021-12-20T13:06:13Z,339186,TRUE,2021-12-20T12:46:40Z,word,left,match,1,13.88888888888889
85,136,L,invalid,478,termometro,right_match,53.20051056,2021-12-20T13:06:13Z,339186,TRUE,2021-12-20T12:46:40Z,word,right,match,1,13.88888888888889
92,127,L,invalid,500,mucca,right_match,53.20051056,2021-12-20T13:06:13Z,339186,TRUE,2021-12-20T12:46:40Z,word,right,match,1,13.88888888888889
96,125,L,invalid,497,mandorla,right_match,53.20051056,2021-12-20T13:06:13Z,339186,TRUE,2021-12-20T12:46:40Z,word,right,match,1,13.88888888888889
108,131,L,invalid,350,pomodoro,right_match,53.20051056,2021-12-20T13:06:13Z,339186,TRUE,2021-12-20T12:46:40Z,word,right,match,1,13.88888888888889
109,56,A,invalid,415,telecomando,left_match,53.20051056,2021-12-20T13:06:13Z,339186,TRUE,2021-12-20T12:46:40Z,word,left,match,1,13.88888888888889
118,59,A,invalid,422,uva,left_match,53.20051056,2021-12-20T13:06:13Z,339186,TRUE,2021-12-20T12:46:40Z,word,left,match,1,13.88888888888889
120,52,A,invalid,426,pistola,left_match,53.20051056,2021-12-20T13:06:13Z,339186,TRUE,2021-12-20T12:46:40Z,word,left,match,1,13.88888888888889
124,118,L,invalid,505,banana,right_match,53.20051056,2021-12-20T13:06:13Z,339186,TRUE,2021-12-20T12:46:40Z,word,right,match,1,13.88888888888889
133,44,A,invalid,449,chiave,left_match,53.20051056,2021-12-20T13:06:13Z,339186,TRUE,2021-12-20T12:46:40Z,word,left,match,1,13.88888888888889
135,54,A,invalid,364,rasoio,left_match,53.20051056,2021-12-20T13:06:13Z,339186,TRUE,2021-12-20T12:46:40Z,word,left,match,1,13.88888888888889
138,128,L,invalid,416,occhiali,right_match,53.20051056,2021-12-20T13:06:13Z,339186,TRUE,2021-12-20T12:46:40Z,word,right,match,1,13.88888888888889
141,50,A,invalid,434,occhiali,left_match,53.20051056,2021-12-20T13:06:13Z,339186,TRUE,2021-12-20T12:46:40Z,word,left,match,1,13.88888888888889
142,132,L,invalid,458,rasoio,right_match,53.20051056,2021-12-20T13:06:13Z,339186,TRUE,2021-12-20T12:46:40Z,word,right,match,1,13.88888888888889
18,215,A,invalid,348,uva,left_mismatch,53.20051056,2021-12-20T13:06:13Z,339186,TRUE,2021-12-20T12:46:40Z,word,left,mismatch,1,12.5
20,198,A,invalid,366,cane,left_mismatch,53.20051056,2021-12-20T13:06:13Z,339186,TRUE,2021-12-20T12:46:40Z,word,left,mismatch,1,12.5
26,282,L,invalid,429,melone,right_mismatch,53.20051056,2021-12-20T13:06:13Z,339186,TRUE,2021-12-20T12:46:40Z,word,right,mismatch,1,12.5
42,284,L,invalid,350,occhiali,right_mismatch,53.20051056,2021-12-20T13:06:13Z,339186,TRUE,2021-12-20T12:46:40Z,word,right,mismatch,1,12.5
45,277,L,invalid,499,cervo,right_mismatch,53.20051056,2021-12-20T13:06:13Z,339186,TRUE,2021-12-20T12:46:40Z,word,right,mismatch,1,12.5
56,208,A,invalid,357,pistola,left_mismatch,53.20051056,2021-12-20T13:06:13Z,339186,TRUE,2021-12-20T12:46:40Z,word,left,mismatch,1,12.5
64,291,L,invalid,524,telefono,right_mismatch,53.20051056,2021-12-20T13:06:13Z,339186,TRUE,2021-12-20T12:46:40Z,word,right,mismatch,1,12.5
65,209,A,invalid,514,pomodoro,left_mismatch,53.20051056,2021-12-20T13:06:13Z,339186,TRUE,2021-12-20T12:46:40Z,word,left,mismatch,1,12.5
74,199,A,invalid,432,cervo,left_mismatch,53.20051056,2021-12-20T13:06:13Z,339186,TRUE,2021-12-20T12:46:40Z,word,left,mismatch,1,12.5
79,289,L,invalid,647,tartaruga,right_mismatch,53.20051056,2021-12-20T13:06:13Z,339186,TRUE,2021-12-20T12:46:40Z,word,right,mismatch,1,12.5
95,276,L,invalid,447,cane,right_mismatch,53.20051056,2021-12-20T13:06:13Z,339186,TRUE,2021-12-20T12:46:40Z,word,right,mismatch,1,12.5
100,293,L,invalid,341,uva,right_mismatch,53.20051056,2021-12-20T13:06:13Z,339186,TRUE,2021-12-20T12:46:40Z,word,right,mismatch,1,12.5
113,290,L,invalid,497,telecomando,right_mismatch,53.20051056,2021-12-20T13:06:13Z,339186,TRUE,2021-12-20T12:46:40Z,word,right,mismatch,1,12.5
114,275,L,invalid,450,bicchiere,right_mismatch,53.20051056,2021-12-20T13:06:13Z,339186,TRUE,2021-12-20T12:46:40Z,word,right,mismatch,1,12.5
117,204,A,invalid,434,melone,left_mismatch,53.20051056,2021-12-20T13:06:13Z,339186,TRUE,2021-12-20T12:46:40Z,word,left,mismatch,1,12.5
123,200,A,invalid,448,chiave,left_mismatch,53.20051056,2021-12-20T13:06:13Z,339186,TRUE,2021-12-20T12:46:40Z,word,left,mismatch,1,12.5
140,201,A,invalid,333,coniglio,left_mismatch,53.20051056,2021-12-20T13:06:13Z,339186,TRUE,2021-12-20T12:46:40Z,word,left,mismatch,1,12.5
144,202,A,invalid,348,frullatore,left_mismatch,53.20051056,2021-12-20T13:06:13Z,339186,TRUE,2021-12-20T12:46:40Z,word,left,mismatch,1,12.5
1,3,A,valid,533,cane,left_match,53.20051056,2021-12-20T13:06:13Z,339186,TRUE,2021-12-20T12:46:40Z,word,left,match,1,14.583333333333334
5,95,L,valid,434,telecomando,right_match,53.20051056,2021-12-20T13:06:13Z,339186,TRUE,2021-12-20T12:46:40Z,word,right,match,1,14.583333333333334
19,89,L,valid,351,occhiali,right_match,53.20051056,2021-12-20T13:06:13Z,339186,TRUE,2021-12-20T12:46:40Z,word,right,match,1,14.583333333333334
24,82,L,valid,349,cervo,right_match,53.20051056,2021-12-20T13:06:13Z,339186,TRUE,2021-12-20T12:46:40Z,word,right,match,1,14.583333333333334
34,94,L,valid,415,tartaruga,right_match,53.20051056,2021-12-20T13:06:13Z,339186,TRUE,2021-12-20T12:46:40Z,word,right,match,1,14.583333333333334
44,18,A,valid,355,telefono,left_match,53.20051056,2021-12-20T13:06:13Z,339186,TRUE,2021-12-20T12:46:40Z,word,left,match,1,14.583333333333334
46,81,L,valid,584,cane,right_match,53.20051056,2021-12-20T13:06:13Z,339186,TRUE,2021-12-20T12:46:40Z,word,right,match,1,14.583333333333334
58,15,A,valid,418,rasoio,left_match,53.20051056,2021-12-20T13:06:13Z,339186,TRUE,2021-12-20T12:46:40Z,word,left,match,1,14.583333333333334
61,16,A,valid,277,tartaruga,left_match,53.20051056,2021-12-20T13:06:13Z,339186,TRUE,2021-12-20T12:46:40Z,word,left,match,1,14.583333333333334
68,80,L,valid,492,bicchiere,right_match,53.20051056,2021-12-20T13:06:13Z,339186,TRUE,2021-12-20T12:46:40Z,word,right,match,1,14.583333333333334
70,86,L,valid,415,mandorla,right_match,53.20051056,2021-12-20T13:06:13Z,339186,TRUE,2021-12-20T12:46:40Z,word,right,match,1,14.583333333333334
91,1,A,valid,433,banana,left_match,53.20051056,2021-12-20T13:06:13Z,339186,TRUE,2021-12-20T12:46:40Z,word,left,match,1,14.583333333333334
94,96,L,valid,419,telefono,right_match,53.20051056,2021-12-20T13:06:13Z,339186,TRUE,2021-12-20T12:46:40Z,word,right,match,1,14.583333333333334
97,83,L,valid,352,chiave,right_match,53.20051056,2021-12-20T13:06:13Z,339186,TRUE,2021-12-20T12:46:40Z,word,right,match,1,14.583333333333334
101,7,A,valid,414,frullatore,left_match,53.20051056,2021-12-20T13:06:13Z,339186,TRUE,2021-12-20T12:46:40Z,word,left,match,1,14.583333333333334
102,13,A,valid,515,pistola,left_match,53.20051056,2021-12-20T13:06:13Z,339186,TRUE,2021-12-20T12:46:40Z,word,left,match,1,14.583333333333334
105,84,L,valid,349,coniglio,right_match,53.20051056,2021-12-20T13:06:13Z,339186,TRUE,2021-12-20T12:46:40Z,word,right,match,1,14.583333333333334
110,4,A,valid,418,cervo,left_match,53.20051056,2021-12-20T13:06:13Z,339186,TRUE,2021-12-20T12:46:40Z,word,left,match,1,14.583333333333334
126,6,A,valid,414,coniglio,left_match,53.20051056,2021-12-20T13:06:13Z,339186,TRUE,2021-12-20T12:46:40Z,word,left,match,1,14.583333333333334
131,90,L,valid,348,pinza,right_match,53.20051056,2021-12-20T13:06:13Z,339186,TRUE,2021-12-20T12:46:40Z,word,right,match,1,14.583333333333334
137,79,L,valid,340,banana,right_match,53.20051056,2021-12-20T13:06:13Z,339186,TRUE,2021-12-20T12:46:40Z,word,right,match,1,14.583333333333334
2,165,A,valid,351,melone,left_mismatch,53.20051056,2021-12-20T13:06:13Z,339186,TRUE,2021-12-20T12:46:40Z,word,left,mismatch,1,15.27777777777778
10,254,L,valid,402,uva,right_mismatch,53.20051056,2021-12-20T13:06:13Z,339186,TRUE,2021-12-20T12:46:40Z,word,right,mismatch,1,15.27777777777778
21,245,L,valid,347,occhiali,right_mismatch,53.20051056,2021-12-20T13:06:13Z,339186,TRUE,2021-12-20T12:46:40Z,word,right,mismatch,1,15.27777777777778
22,243,L,valid,434,melone,right_mismatch,53.20051056,2021-12-20T13:06:13Z,339186,TRUE,2021-12-20T12:46:40Z,word,right,mismatch,1,15.27777777777778
32,242,L,valid,434,mandorla,right_mismatch,53.20051056,2021-12-20T13:06:13Z,339186,TRUE,2021-12-20T12:46:40Z,word,right,mismatch,1,15.27777777777778
39,253,L,valid,417,termometro,right_mismatch,53.20051056,2021-12-20T13:06:13Z,339186,TRUE,2021-12-20T12:46:40Z,word,right,mismatch,1,15.27777777777778
40,172,A,valid,286,tartaruga,left_mismatch,53.20051056,2021-12-20T13:06:13Z,339186,TRUE,2021-12-20T12:46:40Z,word,left,mismatch,1,15.27777777777778
43,170,A,valid,249,pomodoro,left_mismatch,53.20051056,2021-12-20T13:06:13Z,339186,TRUE,2021-12-20T12:46:40Z,word,left,mismatch,1,15.27777777777778
54,167,A,valid,517,occhiali,left_mismatch,53.20051056,2021-12-20T13:06:13Z,339186,TRUE,2021-12-20T12:46:40Z,word,left,mismatch,1,15.27777777777778
57,252,L,valid,430,telefono,right_mismatch,53.20051056,2021-12-20T13:06:13Z,339186,TRUE,2021-12-20T12:46:40Z,word,right,mismatch,1,15.27777777777778
67,235,L,valid,754,banana,right_mismatch,53.20051056,2021-12-20T13:06:13Z,339186,TRUE,2021-12-20T12:46:40Z,word,right,mismatch,1,15.27777777777778
69,247,L,valid,351,pistola,right_mismatch,53.20051056,2021-12-20T13:06:13Z,339186,TRUE,2021-12-20T12:46:40Z,word,right,mismatch,1,15.27777777777778
77,249,L,valid,419,rasoio,right_mismatch,53.20051056,2021-12-20T13:06:13Z,339186,TRUE,2021-12-20T12:46:40Z,word,right,mismatch,1,15.27777777777778
80,237,L,valid,365,cane,right_mismatch,53.20051056,2021-12-20T13:06:13Z,339186,TRUE,2021-12-20T12:46:40Z,word,right,mismatch,1,15.27777777777778
84,171,A,valid,349,rasoio,left_mismatch,53.20051056,2021-12-20T13:06:13Z,339186,TRUE,2021-12-20T12:46:40Z,word,left,mismatch,1,15.27777777777778
89,238,L,valid,434,cervo,right_mismatch,53.20051056,2021-12-20T13:06:13Z,339186,TRUE,2021-12-20T12:46:40Z,word,right,mismatch,1,15.27777777777778
90,166,A,valid,436,mucca,left_mismatch,53.20051056,2021-12-20T13:06:13Z,339186,TRUE,2021-12-20T12:46:40Z,word,left,mismatch,1,15.27777777777778
98,161,A,valid,362,chiave,left_mismatch,53.20051056,2021-12-20T13:06:13Z,339186,TRUE,2021-12-20T12:46:40Z,word,left,mismatch,1,15.27777777777778
107,175,A,valid,349,termometro,left_mismatch,53.20051056,2021-12-20T13:06:13Z,339186,TRUE,2021-12-20T12:46:40Z,word,left,mismatch,1,15.27777777777778
129,173,A,valid,425,telecomando,left_mismatch,53.20051056,2021-12-20T13:06:13Z,339186,TRUE,2021-12-20T12:46:40Z,word,left,mismatch,1,15.27777777777778
134,246,L,valid,367,pinza,right_mismatch,53.20051056,2021-12-20T13:06:13Z,339186,TRUE,2021-12-20T12:46:40Z,word,right,mismatch,1,15.27777777777778
139,244,L,valid,429,mucca,right_mismatch,53.20051056,2021-12-20T13:06:13Z,339186,TRUE,2021-12-20T12:46:40Z,word,right,mismatch,1,15.27777777777778
8,47,A,invalid,876,mandorla,left_match,34.79718367,2021-12-20T13:11:35Z,339220,TRUE,2021-12-20T12:54:13Z,word,left,match,1,12.5
14,40,A,invalid,837,banana,left_match,34.79718367,2021-12-20T13:11:35Z,339220,TRUE,2021-12-20T12:54:13Z,word,left,match,1,12.5
16,46,A,invalid,952,frullatore,left_match,34.79718367,2021-12-20T13:11:35Z,339220,TRUE,2021-12-20T12:54:13Z,word,left,match,1,12.5
28,132,L,invalid,831,rasoio,right_match,34.79718367,2021-12-20T13:11:35Z,339220,TRUE,2021-12-20T12:54:13Z,word,right,match,1,12.5
52,55,A,invalid,466,tartaruga,left_match,34.79718367,2021-12-20T13:11:35Z,339220,TRUE,2021-12-20T12:54:13Z,word,left,match,1,12.5
57,135,L,invalid,633,telefono,right_match,34.79718367,2021-12-20T13:11:35Z,339220,TRUE,2021-12-20T12:54:13Z,word,right,match,1,12.5
61,56,A,invalid,500,telecomando,left_match,34.79718367,2021-12-20T13:11:35Z,339220,TRUE,2021-12-20T12:54:13Z,word,left,match,1,12.5
63,136,L,invalid,847,termometro,right_match,34.79718367,2021-12-20T13:11:35Z,339220,TRUE,2021-12-20T12:54:13Z,word,right,match,1,12.5
84,50,A,invalid,649,occhiali,left_match,34.79718367,2021-12-20T13:11:35Z,339220,TRUE,2021-12-20T12:54:13Z,word,left,match,1,12.5
86,137,L,invalid,420,uva,right_match,34.79718367,2021-12-20T13:11:35Z,339220,TRUE,2021-12-20T12:54:13Z,word,right,match,1,12.5
98,48,A,invalid,477,melone,left_match,34.79718367,2021-12-20T13:11:35Z,339220,TRUE,2021-12-20T12:54:13Z,word,left,match,1,12.5
107,44,A,invalid,394,chiave,left_match,34.79718367,2021-12-20T13:11:35Z,339220,TRUE,2021-12-20T12:54:13Z,word,left,match,1,12.5
114,119,L,invalid,478,bicchiere,right_match,34.79718367,2021-12-20T13:11:35Z,339220,TRUE,2021-12-20T12:54:13Z,word,right,match,1,12.5
116,131,L,invalid,479,pomodoro,right_match,34.79718367,2021-12-20T13:11:35Z,339220,TRUE,2021-12-20T12:54:13Z,word,right,match,1,12.5
117,49,A,invalid,552,mucca,left_match,34.79718367,2021-12-20T13:11:35Z,339220,TRUE,2021-12-20T12:54:13Z,word,left,match,1,12.5
119,124,L,invalid,496,frullatore,right_match,34.79718367,2021-12-20T13:11:35Z,339220,TRUE,2021-12-20T12:54:13Z,word,right,match,1,12.5
120,58,A,invalid,707,termometro,left_match,34.79718367,2021-12-20T13:11:35Z,339220,TRUE,2021-12-20T12:54:13Z,word,left,match,1,12.5
143,127,L,invalid,604,mucca,right_match,34.79718367,2021-12-20T13:11:35Z,339220,TRUE,2021-12-20T12:54:13Z,word,right,match,1,12.5
3,293,L,invalid,708,uva,right_mismatch,34.79718367,2021-12-20T13:11:35Z,339220,TRUE,2021-12-20T12:54:13Z,word,right,mismatch,1,15.27777777777778
5,285,L,invalid,853,pinza,right_mismatch,34.79718367,2021-12-20T13:11:35Z,339220,TRUE,2021-12-20T12:54:13Z,word,right,mismatch,1,15.27777777777778
11,196,A,invalid,783,banana,left_mismatch,34.79718367,2021-12-20T13:11:35Z,339220,TRUE,2021-12-20T12:54:13Z,word,left,mismatch,1,15.27777777777778
18,287,L,invalid,965,pomodoro,right_mismatch,34.79718367,2021-12-20T13:11:35Z,339220,TRUE,2021-12-20T12:54:13Z,word,right,mismatch,1,15.27777777777778
34,289,L,invalid,634,tartaruga,right_mismatch,34.79718367,2021-12-20T13:11:35Z,339220,TRUE,2021-12-20T12:54:13Z,word,right,mismatch,1,15.27777777777778
41,277,L,invalid,723,cervo,right_mismatch,34.79718367,2021-12-20T13:11:35Z,339220,TRUE,2021-12-20T12:54:13Z,word,right,mismatch,1,15.27777777777778
43,208,A,invalid,738,pistola,left_mismatch,34.79718367,2021-12-20T13:11:35Z,339220,TRUE,2021-12-20T12:54:13Z,word,left,mismatch,1,15.27777777777778
50,213,A,invalid,608,telefono,left_mismatch,34.79718367,2021-12-20T13:11:35Z,339220,TRUE,2021-12-20T12:54:13Z,word,left,mismatch,1,15.27777777777778
55,288,L,invalid,436,rasoio,right_mismatch,34.79718367,2021-12-20T13:11:35Z,339220,TRUE,2021-12-20T12:54:13Z,word,right,mismatch,1,15.27777777777778
72,207,A,invalid,568,pinza,left_mismatch,34.79718367,2021-12-20T13:11:35Z,339220,TRUE,2021-12-20T12:54:13Z,word,left,mismatch,1,15.27777777777778
74,292,L,invalid,498,termometro,right_mismatch,34.79718367,2021-12-20T13:11:35Z,339220,TRUE,2021-12-20T12:54:13Z,word,right,mismatch,1,15.27777777777778
75,275,L,invalid,512,bicchiere,right_mismatch,34.79718367,2021-12-20T13:11:35Z,339220,TRUE,2021-12-20T12:54:13Z,word,right,mismatch,1,15.27777777777778
78,279,L,invalid,735,coniglio,right_mismatch,34.79718367,2021-12-20T13:11:35Z,339220,TRUE,2021-12-20T12:54:13Z,word,right,mismatch,1,15.27777777777778
81,280,L,invalid,617,frullatore,right_mismatch,34.79718367,2021-12-20T13:11:35Z,339220,TRUE,2021-12-20T12:54:13Z,word,right,mismatch,1,15.27777777777778
93,286,L,invalid,460,pistola,right_mismatch,34.79718367,2021-12-20T13:11:35Z,339220,TRUE,2021-12-20T12:54:13Z,word,right,mismatch,1,15.27777777777778
99,274,L,invalid,757,banana,right_mismatch,34.79718367,2021-12-20T13:11:35Z,339220,TRUE,2021-12-20T12:54:13Z,word,right,mismatch,1,15.27777777777778
104,210,A,invalid,392,rasoio,left_mismatch,34.79718367,2021-12-20T13:11:35Z,339220,TRUE,2021-12-20T12:54:13Z,word,left,mismatch,1,15.27777777777778
113,209,A,invalid,559,pomodoro,left_mismatch,34.79718367,2021-12-20T13:11:35Z,339220,TRUE,2021-12-20T12:54:13Z,word,left,mismatch,1,15.27777777777778
122,276,L,invalid,621,cane,right_mismatch,34.79718367,2021-12-20T13:11:35Z,339220,TRUE,2021-12-20T12:54:13Z,word,right,mismatch,1,15.27777777777778
131,212,A,invalid,739,telecomando,left_mismatch,34.79718367,2021-12-20T13:11:35Z,339220,TRUE,2021-12-20T12:54:13Z,word,left,mismatch,1,15.27777777777778
141,282,L,invalid,623,melone,right_mismatch,34.79718367,2021-12-20T13:11:35Z,339220,TRUE,2021-12-20T12:54:13Z,word,right,mismatch,1,15.27777777777778
142,278,L,invalid,472,chiave,right_mismatch,34.79718367,2021-12-20T13:11:35Z,339220,TRUE,2021-12-20T12:54:13Z,word,right,mismatch,1,15.27777777777778
7,20,A,valid,730,uva,left_match,34.79718367,2021-12-20T13:11:35Z,339220,TRUE,2021-12-20T12:54:13Z,word,left,match,1,10.416666666666668
19,92,L,valid,857,pomodoro,right_match,34.79718367,2021-12-20T13:11:35Z,339220,TRUE,2021-12-20T12:54:13Z,word,right,match,1,10.416666666666668
48,90,L,valid,495,pinza,right_match,34.79718367,2021-12-20T13:11:35Z,339220,TRUE,2021-12-20T12:54:13Z,word,right,match,1,10.416666666666668
56,86,L,valid,376,mandorla,right_match,34.79718367,2021-12-20T13:11:35Z,339220,TRUE,2021-12-20T12:54:13Z,word,right,match,1,10.416666666666668
69,79,L,valid,509,banana,right_match,34.79718367,2021-12-20T13:11:35Z,339220,TRUE,2021-12-20T12:54:13Z,word,right,match,1,10.416666666666668
79,95,L,valid,463,telecomando,right_match,34.79718367,2021-12-20T13:11:35Z,339220,TRUE,2021-12-20T12:54:13Z,word,right,match,1,10.416666666666668
80,97,L,valid,523,termometro,right_match,34.79718367,2021-12-20T13:11:35Z,339220,TRUE,2021-12-20T12:54:13Z,word,right,match,1,10.416666666666668
82,15,A,valid,602,rasoio,left_match,34.79718367,2021-12-20T13:11:35Z,339220,TRUE,2021-12-20T12:54:13Z,word,left,match,1,10.416666666666668
90,11,A,valid,465,occhiali,left_match,34.79718367,2021-12-20T13:11:35Z,339220,TRUE,2021-12-20T12:54:13Z,word,left,match,1,10.416666666666668
95,84,L,valid,398,coniglio,right_match,34.79718367,2021-12-20T13:11:35Z,339220,TRUE,2021-12-20T12:54:13Z,word,right,match,1,10.416666666666668
100,7,A,valid,462,frullatore,left_match,34.79718367,2021-12-20T13:11:35Z,339220,TRUE,2021-12-20T12:54:13Z,word,left,match,1,10.416666666666668
103,5,A,valid,413,chiave,left_match,34.79718367,2021-12-20T13:11:35Z,339220,TRUE,2021-12-20T12:54:13Z,word,left,match,1,10.416666666666668
133,13,A,valid,368,pistola,left_match,34.79718367,2021-12-20T13:11:35Z,339220,TRUE,2021-12-20T12:54:13Z,word,left,match,1,10.416666666666668
137,94,L,valid,544,tartaruga,right_match,34.79718367,2021-12-20T13:11:35Z,339220,TRUE,2021-12-20T12:54:13Z,word,right,match,1,10.416666666666668
138,98,L,valid,474,uva,right_match,34.79718367,2021-12-20T13:11:35Z,339220,TRUE,2021-12-20T12:54:13Z,word,right,match,1,10.416666666666668
4,166,A,valid,731,mucca,left_mismatch,34.79718367,2021-12-20T13:11:35Z,339220,TRUE,2021-12-20T12:54:13Z,word,left,mismatch,1,10.416666666666668
6,247,L,valid,500,pistola,right_mismatch,34.79718367,2021-12-20T13:11:35Z,339220,TRUE,2021-12-20T12:54:13Z,word,right,mismatch,1,10.416666666666668
10,238,L,valid,753,cervo,right_mismatch,34.79718367,2021-12-20T13:11:35Z,339220,TRUE,2021-12-20T12:54:13Z,word,right,mismatch,1,10.416666666666668
37,240,L,valid,571,coniglio,right_mismatch,34.79718367,2021-12-20T13:11:35Z,339220,TRUE,2021-12-20T12:54:13Z,word,right,mismatch,1,10.416666666666668
38,244,L,valid,492,mucca,right_mismatch,34.79718367,2021-12-20T13:11:35Z,339220,TRUE,2021-12-20T12:54:13Z,word,right,mismatch,1,10.416666666666668
65,252,L,valid,479,telefono,right_mismatch,34.79718367,2021-12-20T13:11:35Z,339220,TRUE,2021-12-20T12:54:13Z,word,right,mismatch,1,10.416666666666668
71,169,A,valid,589,pistola,left_mismatch,34.79718367,2021-12-20T13:11:35Z,339220,TRUE,2021-12-20T12:54:13Z,word,left,mismatch,1,10.416666666666668
73,254,L,valid,421,uva,right_mismatch,34.79718367,2021-12-20T13:11:35Z,339220,TRUE,2021-12-20T12:54:13Z,word,right,mismatch,1,10.416666666666668
85,248,L,valid,655,pomodoro,right_mismatch,34.79718367,2021-12-20T13:11:35Z,339220,TRUE,2021-12-20T12:54:13Z,word,right,mismatch,1,10.416666666666668
89,165,A,valid,533,melone,left_mismatch,34.79718367,2021-12-20T13:11:35Z,339220,TRUE,2021-12-20T12:54:13Z,word,left,mismatch,1,10.416666666666668
105,241,L,valid,418,frullatore,right_mismatch,34.79718367,2021-12-20T13:11:35Z,339220,TRUE,2021-12-20T12:54:13Z,word,right,mismatch,1,10.416666666666668
109,243,L,valid,472,melone,right_mismatch,34.79718367,2021-12-20T13:11:35Z,339220,TRUE,2021-12-20T12:54:13Z,word,right,mismatch,1,10.416666666666668
110,253,L,valid,475,termometro,right_mismatch,34.79718367,2021-12-20T13:11:35Z,339220,TRUE,2021-12-20T12:54:13Z,word,right,mismatch,1,10.416666666666668
126,164,A,valid,447,mandorla,left_mismatch,34.79718367,2021-12-20T13:11:35Z,339220,TRUE,2021-12-20T12:54:13Z,word,left,mismatch,1,10.416666666666668
132,237,L,valid,372,cane,right_mismatch,34.79718367,2021-12-20T13:11:35Z,339220,TRUE,2021-12-20T12:54:13Z,word,right,mismatch,1,10.416666666666668
1,57,A,invalid,732,telefono,left_match,17.69038995,2021-12-20T13:16:35Z,339221,TRUE,2021-12-20T12:54:14Z,word,left,match,1,11.805555555555555
5,44,A,invalid,489,chiave,left_match,17.69038995,2021-12-20T13:16:35Z,339221,TRUE,2021-12-20T12:54:14Z,word,left,match,1,11.805555555555555
16,55,A,invalid,473,tartaruga,left_match,17.69038995,2021-12-20T13:16:35Z,339221,TRUE,2021-12-20T12:54:14Z,word,left,match,1,11.805555555555555
17,128,L,invalid,484,occhiali,right_match,17.69038995,2021-12-20T13:16:35Z,339221,TRUE,2021-12-20T12:54:14Z,word,right,match,1,11.805555555555555
19,45,A,invalid,487,coniglio,left_match,17.69038995,2021-12-20T13:16:35Z,339221,TRUE,2021-12-20T12:54:14Z,word,left,match,1,11.805555555555555
20,135,L,invalid,485,telefono,right_match,17.69038995,2021-12-20T13:16:35Z,339221,TRUE,2021-12-20T12:54:14Z,word,right,match,1,11.805555555555555
39,48,A,invalid,603,melone,left_match,17.69038995,2021-12-20T13:16:35Z,339221,TRUE,2021-12-20T12:54:14Z,word,left,match,1,11.805555555555555
43,136,L,invalid,631,termometro,right_match,17.69038995,2021-12-20T13:16:35Z,339221,TRUE,2021-12-20T12:54:14Z,word,right,match,1,11.805555555555555
47,119,L,invalid,500,bicchiere,right_match,17.69038995,2021-12-20T13:16:35Z,339221,TRUE,2021-12-20T12:54:14Z,word,right,match,1,11.805555555555555
51,125,L,invalid,467,mandorla,right_match,17.69038995,2021-12-20T13:16:35Z,339221,TRUE,2021-12-20T12:54:14Z,word,right,match,1,11.805555555555555
55,133,L,invalid,482,tartaruga,right_match,17.69038995,2021-12-20T13:16:35Z,339221,TRUE,2021-12-20T12:54:14Z,word,right,match,1,11.805555555555555
66,130,L,invalid,468,pistola,right_match,17.69038995,2021-12-20T13:16:35Z,339221,TRUE,2021-12-20T12:54:14Z,word,right,match,1,11.805555555555555
71,121,L,invalid,477,cervo,right_match,17.69038995,2021-12-20T13:16:35Z,339221,TRUE,2021-12-20T12:54:14Z,word,right,match,1,11.805555555555555
93,131,L,invalid,511,pomodoro,right_match,17.69038995,2021-12-20T13:16:35Z,339221,TRUE,2021-12-20T12:54:14Z,word,right,match,1,11.805555555555555
104,46,A,invalid,720,frullatore,left_match,17.69038995,2021-12-20T13:16:35Z,339221,TRUE,2021-12-20T12:54:14Z,word,left,match,1,11.805555555555555
124,129,L,invalid,609,pinza,right_match,17.69038995,2021-12-20T13:16:35Z,339221,TRUE,2021-12-20T12:54:14Z,word,right,match,1,11.805555555555555
143,58,A,invalid,499,termometro,left_match,17.69038995,2021-12-20T13:16:35Z,339221,TRUE,2021-12-20T12:54:14Z,word,left,match,1,11.805555555555555
4,200,A,invalid,485,chiave,left_mismatch,17.69038995,2021-12-20T13:16:35Z,339221,TRUE,2021-12-20T12:54:14Z,word,left,mismatch,1,11.805555555555555
15,290,L,invalid,484,telecomando,right_mismatch,17.69038995,2021-12-20T13:16:35Z,339221,TRUE,2021-12-20T12:54:14Z,word,right,mismatch,1,11.805555555555555
21,287,L,invalid,486,pomodoro,right_mismatch,17.69038995,2021-12-20T13:16:35Z,339221,TRUE,2021-12-20T12:54:14Z,word,right,mismatch,1,11.805555555555555
27,281,L,invalid,486,mandorla,right_mismatch,17.69038995,2021-12-20T13:16:35Z,339221,TRUE,2021-12-20T12:54:14Z,word,right,mismatch,1,11.805555555555555
28,278,L,invalid,464,chiave,right_mismatch,17.69038995,2021-12-20T13:16:35Z,339221,TRUE,2021-12-20T12:54:14Z,word,right,mismatch,1,11.805555555555555
31,198,A,invalid,517,cane,left_mismatch,17.69038995,2021-12-20T13:16:35Z,339221,TRUE,2021-12-20T12:54:14Z,word,left,mismatch,1,11.805555555555555
33,214,A,invalid,498,termometro,left_mismatch,17.69038995,2021-12-20T13:16:35Z,339221,TRUE,2021-12-20T12:54:14Z,word,left,mismatch,1,11.805555555555555
44,211,A,invalid,383,tartaruga,left_mismatch,17.69038995,2021-12-20T13:16:35Z,339221,TRUE,2021-12-20T12:54:14Z,word,left,mismatch,1,11.805555555555555
48,286,L,invalid,493,pistola,right_mismatch,17.69038995,2021-12-20T13:16:35Z,339221,TRUE,2021-12-20T12:54:14Z,word,right,mismatch,1,11.805555555555555
54,199,A,invalid,373,cervo,left_mismatch,17.69038995,2021-12-20T13:16:35Z,339221,TRUE,2021-12-20T12:54:14Z,word,left,mismatch,1,11.805555555555555
69,213,A,invalid,476,telefono,left_mismatch,17.69038995,2021-12-20T13:16:35Z,339221,TRUE,2021-12-20T12:54:14Z,word,left,mismatch,1,11.805555555555555
88,284,L,invalid,463,occhiali,right_mismatch,17.69038995,2021-12-20T13:16:35Z,339221,TRUE,2021-12-20T12:54:14Z,word,right,mismatch,1,11.805555555555555
94,274,L,invalid,527,banana,right_mismatch,17.69038995,2021-12-20T13:16:35Z,339221,TRUE,2021-12-20T12:54:14Z,word,right,mismatch,1,11.805555555555555
106,202,A,invalid,481,frullatore,left_mismatch,17.69038995,2021-12-20T13:16:35Z,339221,TRUE,2021-12-20T12:54:14Z,word,left,mismatch,1,11.805555555555555
112,203,A,invalid,523,mandorla,left_mismatch,17.69038995,2021-12-20T13:16:35Z,339221,TRUE,2021-12-20T12:54:14Z,word,left,mismatch,1,11.805555555555555
125,293,L,invalid,480,uva,right_mismatch,17.69038995,2021-12-20T13:16:35Z,339221,TRUE,2021-12-20T12:54:14Z,word,right,mismatch,1,11.805555555555555
137,275,L,invalid,505,bicchiere,right_mismatch,17.69038995,2021-12-20T13:16:35Z,339221,TRUE,2021-12-20T12:54:14Z,word,right,mismatch,1,11.805555555555555
11,80,L,valid,379,bicchiere,right_match,17.69038995,2021-12-20T13:16:35Z,339221,TRUE,2021-12-20T12:54:14Z,word,right,match,1,11.805555555555555
13,15,A,valid,493,rasoio,left_match,17.69038995,2021-12-20T13:16:35Z,339221,TRUE,2021-12-20T12:54:14Z,word,left,match,1,11.805555555555555
26,92,L,valid,458,pomodoro,right_match,17.69038995,2021-12-20T13:16:35Z,339221,TRUE,2021-12-20T12:54:14Z,word,right,match,1,11.805555555555555
37,14,A,valid,500,pomodoro,left_match,17.69038995,2021-12-20T13:16:35Z,339221,TRUE,2021-12-20T12:54:14Z,word,left,match,1,11.805555555555555
61,88,L,valid,601,mucca,right_match,17.69038995,2021-12-20T13:16:35Z,339221,TRUE,2021-12-20T12:54:14Z,word,right,match,1,11.805555555555555
64,87,L,valid,368,melone,right_match,17.69038995,2021-12-20T13:16:35Z,339221,TRUE,2021-12-20T12:54:14Z,word,right,match,1,11.805555555555555
70,93,L,valid,597,rasoio,right_match,17.69038995,2021-12-20T13:16:35Z,339221,TRUE,2021-12-20T12:54:14Z,word,right,match,1,11.805555555555555
77,10,A,valid,404,mucca,left_match,17.69038995,2021-12-20T13:16:35Z,339221,TRUE,2021-12-20T12:54:14Z,word,left,match,1,11.805555555555555
84,7,A,valid,514,frullatore,left_match,17.69038995,2021-12-20T13:16:35Z,339221,TRUE,2021-12-20T12:54:14Z,word,left,match,1,11.805555555555555
102,6,A,valid,525,coniglio,left_match,17.69038995,2021-12-20T13:16:35Z,339221,TRUE,2021-12-20T12:54:14Z,word,left,match,1,11.805555555555555
109,4,A,valid,384,cervo,left_match,17.69038995,2021-12-20T13:16:35Z,339221,TRUE,2021-12-20T12:54:14Z,word,left,match,1,11.805555555555555
114,3,A,valid,480,cane,left_match,17.69038995,2021-12-20T13:16:35Z,339221,TRUE,2021-12-20T12:54:14Z,word,left,match,1,11.805555555555555
121,84,L,valid,495,coniglio,right_match,17.69038995,2021-12-20T13:16:35Z,339221,TRUE,2021-12-20T12:54:14Z,word,right,match,1,11.805555555555555
122,85,L,valid,565,frullatore,right_match,17.69038995,2021-12-20T13:16:35Z,339221,TRUE,2021-12-20T12:54:14Z,word,right,match,1,11.805555555555555
136,16,A,valid,418,tartaruga,left_match,17.69038995,2021-12-20T13:16:35Z,339221,TRUE,2021-12-20T12:54:14Z,word,left,match,1,11.805555555555555
138,18,A,valid,416,telefono,left_match,17.69038995,2021-12-20T13:16:35Z,339221,TRUE,2021-12-20T12:54:14Z,word,left,match,1,11.805555555555555
144,86,L,valid,483,mandorla,right_match,17.69038995,2021-12-20T13:16:35Z,339221,TRUE,2021-12-20T12:54:14Z,word,right,match,1,11.805555555555555
7,158,A,valid,501,bicchiere,left_mismatch,17.69038995,2021-12-20T13:16:35Z,339221,TRUE,2021-12-20T12:54:14Z,word,left,mismatch,1,11.805555555555555
9,173,A,valid,589,telecomando,left_mismatch,17.69038995,2021-12-20T13:16:35Z,339221,TRUE,2021-12-20T12:54:14Z,word,left,mismatch,1,11.805555555555555
14,172,A,valid,466,tartaruga,left_mismatch,17.69038995,2021-12-20T13:16:35Z,339221,TRUE,2021-12-20T12:54:14Z,word,left,mismatch,1,11.805555555555555
25,174,A,valid,500,telefono,left_mismatch,17.69038995,2021-12-20T13:16:35Z,339221,TRUE,2021-12-20T12:54:14Z,word,left,mismatch,1,11.805555555555555
38,251,L,valid,368,telecomando,right_mismatch,17.69038995,2021-12-20T13:16:35Z,339221,TRUE,2021-12-20T12:54:14Z,word,right,mismatch,1,11.805555555555555
40,162,A,valid,381,coniglio,left_mismatch,17.69038995,2021-12-20T13:16:35Z,339221,TRUE,2021-12-20T12:54:14Z,word,left,mismatch,1,11.805555555555555
53,163,A,valid,385,frullatore,left_mismatch,17.69038995,2021-12-20T13:16:35Z,339221,TRUE,2021-12-20T12:54:14Z,word,left,mismatch,1,11.805555555555555
59,248,L,valid,383,pomodoro,right_mismatch,17.69038995,2021-12-20T13:16:35Z,339221,TRUE,2021-12-20T12:54:14Z,word,right,mismatch,1,11.805555555555555
65,166,A,valid,491,mucca,left_mismatch,17.69038995,2021-12-20T13:16:35Z,339221,TRUE,2021-12-20T12:54:14Z,word,left,mismatch,1,11.805555555555555
74,176,A,valid,488,uva,left_mismatch,17.69038995,2021-12-20T13:16:35Z,339221,TRUE,2021-12-20T12:54:14Z,word,left,mismatch,1,11.805555555555555
80,245,L,valid,486,occhiali,right_mismatch,17.69038995,2021-12-20T13:16:35Z,339221,TRUE,2021-12-20T12:54:14Z,word,right,mismatch,1,11.805555555555555
89,242,L,valid,481,mandorla,right_mismatch,17.69038995,2021-12-20T13:16:35Z,339221,TRUE,2021-12-20T12:54:14Z,word,right,mismatch,1,11.805555555555555
97,159,A,valid,494,cane,left_mismatch,17.69038995,2021-12-20T13:16:35Z,339221,TRUE,2021-12-20T12:54:14Z,word,left,mismatch,1,11.805555555555555
103,175,A,valid,489,termometro,left_mismatch,17.69038995,2021-12-20T13:16:35Z,339221,TRUE,2021-12-20T12:54:14Z,word,left,mismatch,1,11.805555555555555
113,169,A,valid,468,pistola,left_mismatch,17.69038995,2021-12-20T13:16:35Z,339221,TRUE,2021-12-20T12:54:14Z,word,left,mismatch,1,11.805555555555555
128,240,L,valid,492,coniglio,right_mismatch,17.69038995,2021-12-20T13:16:35Z,339221,TRUE,2021-12-20T12:54:14Z,word,right,mismatch,1,11.805555555555555
134,252,L,valid,485,telefono,right_mismatch,17.69038995,2021-12-20T13:16:35Z,339221,TRUE,2021-12-20T12:54:14Z,word,right,mismatch,1,11.805555555555555
1,125,L,invalid,507,mandorla,right_match,53.02989086,2021-12-20T13:13:42Z,339234,TRUE,2021-12-20T12:55:27Z,word,right,match,1,15.97222222222222
2,52,A,invalid,347,pistola,left_match,53.02989086,2021-12-20T13:13:42Z,339234,TRUE,2021-12-20T12:55:27Z,word,left,match,1,15.97222222222222
7,129,L,invalid,564,pinza,right_match,53.02989086,2021-12-20T13:13:42Z,339234,TRUE,2021-12-20T12:55:27Z,word,right,match,1,15.97222222222222
8,49,A,invalid,499,mucca,left_match,53.02989086,2021-12-20T13:13:42Z,339234,TRUE,2021-12-20T12:55:27Z,word,left,match,1,15.97222222222222
17,133,L,invalid,503,tartaruga,right_match,53.02989086,2021-12-20T13:13:42Z,339234,TRUE,2021-12-20T12:55:27Z,word,right,match,1,15.97222222222222
18,45,A,invalid,466,coniglio,left_match,53.02989086,2021-12-20T13:13:42Z,339234,TRUE,2021-12-20T12:55:27Z,word,left,match,1,15.97222222222222
19,40,A,invalid,428,banana,left_match,53.02989086,2021-12-20T13:13:42Z,339234,TRUE,2021-12-20T12:55:27Z,word,left,match,1,15.97222222222222
25,124,L,invalid,510,frullatore,right_match,53.02989086,2021-12-20T13:13:42Z,339234,TRUE,2021-12-20T12:55:27Z,word,right,match,1,15.97222222222222
27,43,A,invalid,498,cervo,left_match,53.02989086,2021-12-20T13:13:42Z,339234,TRUE,2021-12-20T12:55:27Z,word,left,match,1,15.97222222222222
28,122,L,invalid,415,chiave,right_match,53.02989086,2021-12-20T13:13:42Z,339234,TRUE,2021-12-20T12:55:27Z,word,right,match,1,15.97222222222222
33,51,A,invalid,638,pinza,left_match,53.02989086,2021-12-20T13:13:42Z,339234,TRUE,2021-12-20T12:55:27Z,word,left,match,1,15.97222222222222
78,135,L,invalid,895,telefono,right_match,53.02989086,2021-12-20T13:13:42Z,339234,TRUE,2021-12-20T12:55:27Z,word,right,match,1,15.97222222222222
80,127,L,invalid,415,mucca,right_match,53.02989086,2021-12-20T13:13:42Z,339234,TRUE,2021-12-20T12:55:27Z,word,right,match,1,15.97222222222222
85,53,A,invalid,423,pomodoro,left_match,53.02989086,2021-12-20T13:13:42Z,339234,TRUE,2021-12-20T12:55:27Z,word,left,match,1,15.97222222222222
87,55,A,invalid,490,tartaruga,left_match,53.02989086,2021-12-20T13:13:42Z,339234,TRUE,2021-12-20T12:55:27Z,word,left,match,1,15.97222222222222
89,42,A,invalid,633,cane,left_match,53.02989086,2021-12-20T13:13:42Z,339234,TRUE,2021-12-20T12:55:27Z,word,left,match,1,15.97222222222222
101,59,A,invalid,397,uva,left_match,53.02989086,2021-12-20T13:13:42Z,339234,TRUE,2021-12-20T12:55:27Z,word,left,match,1,15.97222222222222
102,120,L,invalid,417,cane,right_match,53.02989086,2021-12-20T13:13:42Z,339234,TRUE,2021-12-20T12:55:27Z,word,right,match,1,15.97222222222222
109,134,L,invalid,315,telecomando,right_match,53.02989086,2021-12-20T13:13:42Z,339234,TRUE,2021-12-20T12:55:27Z,word,right,match,1,15.97222222222222
113,48,A,invalid,413,melone,left_match,53.02989086,2021-12-20T13:13:42Z,339234,TRUE,2021-12-20T12:55:27Z,word,left,match,1,15.97222222222222
126,44,A,invalid,427,chiave,left_match,53.02989086,2021-12-20T13:13:42Z,339234,TRUE,2021-12-20T12:55:27Z,word,left,match,1,15.97222222222222
127,119,L,invalid,348,bicchiere,right_match,53.02989086,2021-12-20T13:13:42Z,339234,TRUE,2021-12-20T12:55:27Z,word,right,match,1,15.97222222222222
141,50,A,invalid,415,occhiali,left_match,53.02989086,2021-12-20T13:13:42Z,339234,TRUE,2021-12-20T12:55:27Z,word,left,match,1,15.97222222222222
4,287,L,invalid,415,pomodoro,right_mismatch,53.02989086,2021-12-20T13:13:42Z,339234,TRUE,2021-12-20T12:55:27Z,word,right,mismatch,1,13.88888888888889
6,292,L,invalid,481,termometro,right_mismatch,53.02989086,2021-12-20T13:13:42Z,339234,TRUE,2021-12-20T12:55:27Z,word,right,mismatch,1,13.88888888888889
16,276,L,invalid,499,cane,right_mismatch,53.02989086,2021-12-20T13:13:42Z,339234,TRUE,2021-12-20T12:55:27Z,word,right,mismatch,1,13.88888888888889
21,282,L,invalid,426,melone,right_mismatch,53.02989086,2021-12-20T13:13:42Z,339234,TRUE,2021-12-20T12:55:27Z,word,right,mismatch,1,13.88888888888889
43,284,L,invalid,336,occhiali,right_mismatch,53.02989086,2021-12-20T13:13:42Z,339234,TRUE,2021-12-20T12:55:27Z,word,right,mismatch,1,13.88888888888889
52,213,A,invalid,785,telefono,left_mismatch,53.02989086,2021-12-20T13:13:42Z,339234,TRUE,2021-12-20T12:55:27Z,word,left,mismatch,1,13.88888888888889
56,278,L,invalid,417,chiave,right_mismatch,53.02989086,2021-12-20T13:13:42Z,339234,TRUE,2021-12-20T12:55:27Z,word,right,mismatch,1,13.88888888888889
57,200,A,invalid,493,chiave,left_mismatch,53.02989086,2021-12-20T13:13:42Z,339234,TRUE,2021-12-20T12:55:27Z,word,left,mismatch,1,13.88888888888889
60,285,L,invalid,568,pinza,right_mismatch,53.02989086,2021-12-20T13:13:42Z,339234,TRUE,2021-12-20T12:55:27Z,word,right,mismatch,1,13.88888888888889
66,201,A,invalid,483,coniglio,left_mismatch,53.02989086,2021-12-20T13:13:42Z,339234,TRUE,2021-12-20T12:55:27Z,word,left,mismatch,1,13.88888888888889
68,214,A,invalid,499,termometro,left_mismatch,53.02989086,2021-12-20T13:13:42Z,339234,TRUE,2021-12-20T12:55:27Z,word,left,mismatch,1,13.88888888888889
71,210,A,invalid,777,rasoio,left_mismatch,53.02989086,2021-12-20T13:13:42Z,339234,TRUE,2021-12-20T12:55:27Z,word,left,mismatch,1,13.88888888888889
76,207,A,invalid,412,pinza,left_mismatch,53.02989086,2021-12-20T13:13:42Z,339234,TRUE,2021-12-20T12:55:27Z,word,left,mismatch,1,13.88888888888889
77,204,A,invalid,410,melone,left_mismatch,53.02989086,2021-12-20T13:13:42Z,339234,TRUE,2021-12-20T12:55:27Z,word,left,mismatch,1,13.88888888888889
96,206,A,invalid,422,occhiali,left_mismatch,53.02989086,2021-12-20T13:13:42Z,339234,TRUE,2021-12-20T12:55:27Z,word,left,mismatch,1,13.88888888888889
108,198,A,invalid,404,cane,left_mismatch,53.02989086,2021-12-20T13:13:42Z,339234,TRUE,2021-12-20T12:55:27Z,word,left,mismatch,1,13.88888888888889
134,283,L,invalid,494,mucca,right_mismatch,53.02989086,2021-12-20T13:13:42Z,339234,TRUE,2021-12-20T12:55:27Z,word,right,mismatch,1,13.88888888888889
136,277,L,invalid,484,cervo,right_mismatch,53.02989086,2021-12-20T13:13:42Z,339234,TRUE,2021-12-20T12:55:27Z,word,right,mismatch,1,13.88888888888889
138,274,L,invalid,558,banana,right_mismatch,53.02989086,2021-12-20T13:13:42Z,339234,TRUE,2021-12-20T12:55:27Z,word,right,mismatch,1,13.88888888888889
140,275,L,invalid,432,bicchiere,right_mismatch,53.02989086,2021-12-20T13:13:42Z,339234,TRUE,2021-12-20T12:55:27Z,word,right,mismatch,1,13.88888888888889
9,12,A,valid,575,pinza,left_match,53.02989086,2021-12-20T13:13:42Z,339234,TRUE,2021-12-20T12:55:27Z,word,left,match,1,11.805555555555555
12,15,A,valid,482,rasoio,left_match,53.02989086,2021-12-20T13:13:42Z,339234,TRUE,2021-12-20T12:55:27Z,word,left,match,1,11.805555555555555
14,89,L,valid,423,occhiali,right_match,53.02989086,2021-12-20T13:13:42Z,339234,TRUE,2021-12-20T12:55:27Z,word,right,match,1,11.805555555555555
15,93,L,valid,422,rasoio,right_match,53.02989086,2021-12-20T13:13:42Z,339234,TRUE,2021-12-20T12:55:27Z,word,right,match,1,11.805555555555555
24,94,L,valid,480,tartaruga,right_match,53.02989086,2021-12-20T13:13:42Z,339234,TRUE,2021-12-20T12:55:27Z,word,right,match,1,11.805555555555555
26,5,A,valid,488,chiave,left_match,53.02989086,2021-12-20T13:13:42Z,339234,TRUE,2021-12-20T12:55:27Z,word,left,match,1,11.805555555555555
61,95,L,valid,426,telecomando,right_match,53.02989086,2021-12-20T13:13:42Z,339234,TRUE,2021-12-20T12:55:27Z,word,right,match,1,11.805555555555555
65,87,L,valid,346,melone,right_match,53.02989086,2021-12-20T13:13:42Z,339234,TRUE,2021-12-20T12:55:27Z,word,right,match,1,11.805555555555555
79,85,L,valid,408,frullatore,right_match,53.02989086,2021-12-20T13:13:42Z,339234,TRUE,2021-12-20T12:55:27Z,word,right,match,1,11.805555555555555
83,18,A,valid,336,telefono,left_match,53.02989086,2021-12-20T13:13:42Z,339234,TRUE,2021-12-20T12:55:27Z,word,left,match,1,11.805555555555555
105,81,L,valid,416,cane,right_match,53.02989086,2021-12-20T13:13:42Z,339234,TRUE,2021-12-20T12:55:27Z,word,right,match,1,11.805555555555555
119,8,A,valid,415,mandorla,left_match,53.02989086,2021-12-20T13:13:42Z,339234,TRUE,2021-12-20T12:55:27Z,word,left,match,1,11.805555555555555
123,80,L,valid,338,bicchiere,right_match,53.02989086,2021-12-20T13:13:42Z,339234,TRUE,2021-12-20T12:55:27Z,word,right,match,1,11.805555555555555
131,97,L,valid,409,termometro,right_match,53.02989086,2021-12-20T13:13:42Z,339234,TRUE,2021-12-20T12:55:27Z,word,right,match,1,11.805555555555555
133,98,L,valid,396,uva,right_match,53.02989086,2021-12-20T13:13:42Z,339234,TRUE,2021-12-20T12:55:27Z,word,right,match,1,11.805555555555555
139,79,L,valid,417,banana,right_match,53.02989086,2021-12-20T13:13:42Z,339234,TRUE,2021-12-20T12:55:27Z,word,right,match,1,11.805555555555555
144,20,A,valid,499,uva,left_match,53.02989086,2021-12-20T13:13:42Z,339234,TRUE,2021-12-20T12:55:27Z,word,left,match,1,11.805555555555555
38,157,A,valid,405,banana,left_mismatch,53.02989086,2021-12-20T13:13:42Z,339234,TRUE,2021-12-20T12:55:27Z,word,left,mismatch,1,11.805555555555555
39,158,A,valid,418,bicchiere,left_mismatch,53.02989086,2021-12-20T13:13:42Z,339234,TRUE,2021-12-20T12:55:27Z,word,left,mismatch,1,11.805555555555555
41,166,A,valid,515,mucca,left_mismatch,53.02989086,2021-12-20T13:13:42Z,339234,TRUE,2021-12-20T12:55:27Z,word,left,mismatch,1,11.805555555555555
46,248,L,valid,487,pomodoro,right_mismatch,53.02989086,2021-12-20T13:13:42Z,339234,TRUE,2021-12-20T12:55:27Z,word,right,mismatch,1,11.805555555555555
47,247,L,valid,499,pistola,right_mismatch,53.02989086,2021-12-20T13:13:42Z,339234,TRUE,2021-12-20T12:55:27Z,word,right,mismatch,1,11.805555555555555
51,254,L,valid,423,uva,right_mismatch,53.02989086,2021-12-20T13:13:42Z,339234,TRUE,2021-12-20T12:55:27Z,word,right,mismatch,1,11.805555555555555
53,253,L,valid,414,termometro,right_mismatch,53.02989086,2021-12-20T13:13:42Z,339234,TRUE,2021-12-20T12:55:27Z,word,right,mismatch,1,11.805555555555555
62,237,L,valid,342,cane,right_mismatch,53.02989086,2021-12-20T13:13:42Z,339234,TRUE,2021-12-20T12:55:27Z,word,right,mismatch,1,11.805555555555555
69,250,L,valid,340,tartaruga,right_mismatch,53.02989086,2021-12-20T13:13:42Z,339234,TRUE,2021-12-20T12:55:27Z,word,right,mismatch,1,11.805555555555555
70,242,L,valid,410,mandorla,right_mismatch,53.02989086,2021-12-20T13:13:42Z,339234,TRUE,2021-12-20T12:55:27Z,word,right,mismatch,1,11.805555555555555
74,235,L,valid,444,banana,right_mismatch,53.02989086,2021-12-20T13:13:42Z,339234,TRUE,2021-12-20T12:55:27Z,word,right,mismatch,1,11.805555555555555
81,246,L,valid,501,pinza,right_mismatch,53.02989086,2021-12-20T13:13:42Z,339234,TRUE,2021-12-20T12:55:27Z,word,right,mismatch,1,11.805555555555555
95,176,A,valid,500,uva,left_mismatch,53.02989086,2021-12-20T13:13:42Z,339234,TRUE,2021-12-20T12:55:27Z,word,left,mismatch,1,11.805555555555555
106,167,A,valid,644,occhiali,left_mismatch,53.02989086,2021-12-20T13:13:42Z,339234,TRUE,2021-12-20T12:55:27Z,word,left,mismatch,1,11.805555555555555
125,175,A,valid,896,termometro,left_mismatch,53.02989086,2021-12-20T13:13:42Z,339234,TRUE,2021-12-20T12:55:27Z,word,left,mismatch,1,11.805555555555555
142,245,L,valid,408,occhiali,right_mismatch,53.02989086,2021-12-20T13:13:42Z,339234,TRUE,2021-12-20T12:55:27Z,word,right,mismatch,1,11.805555555555555
143,174,A,valid,479,telefono,left_mismatch,53.02989086,2021-12-20T13:13:42Z,339234,TRUE,2021-12-20T12:55:27Z,word,left,mismatch,1,11.805555555555555
11,52,A,invalid,491,pistola,left_match,43.96269904,2021-12-20T13:14:45Z,339238,TRUE,2021-12-20T12:55:23Z,word,left,match,1,15.97222222222222
19,134,L,invalid,429,telecomando,right_match,43.96269904,2021-12-20T13:14:45Z,339238,TRUE,2021-12-20T12:55:23Z,word,right,match,1,15.97222222222222
20,118,L,invalid,468,banana,right_match,43.96269904,2021-12-20T13:14:45Z,339238,TRUE,2021-12-20T12:55:23Z,word,right,match,1,15.97222222222222
23,132,L,invalid,709,rasoio,right_match,43.96269904,2021-12-20T13:14:45Z,339238,TRUE,2021-12-20T12:55:23Z,word,right,match,1,15.97222222222222
30,46,A,invalid,757,frullatore,left_match,43.96269904,2021-12-20T13:14:45Z,339238,TRUE,2021-12-20T12:55:23Z,word,left,match,1,15.97222222222222
44,130,L,invalid,603,pistola,right_match,43.96269904,2021-12-20T13:14:45Z,339238,TRUE,2021-12-20T12:55:23Z,word,right,match,1,15.97222222222222
47,54,A,invalid,653,rasoio,left_match,43.96269904,2021-12-20T13:14:45Z,339238,TRUE,2021-12-20T12:55:23Z,word,left,match,1,15.97222222222222
52,127,L,invalid,391,mucca,right_match,43.96269904,2021-12-20T13:14:45Z,339238,TRUE,2021-12-20T12:55:23Z,word,right,match,1,15.97222222222222
63,55,A,invalid,699,tartaruga,left_match,43.96269904,2021-12-20T13:14:45Z,339238,TRUE,2021-12-20T12:55:23Z,word,left,match,1,15.97222222222222
67,48,A,invalid,715,melone,left_match,43.96269904,2021-12-20T13:14:45Z,339238,TRUE,2021-12-20T12:55:23Z,word,left,match,1,15.97222222222222
75,56,A,invalid,721,telecomando,left_match,43.96269904,2021-12-20T13:14:45Z,339238,TRUE,2021-12-20T12:55:23Z,word,left,match,1,15.97222222222222
81,133,L,invalid,733,tartaruga,right_match,43.96269904,2021-12-20T13:14:45Z,339238,TRUE,2021-12-20T12:55:23Z,word,right,match,1,15.97222222222222
85,41,A,invalid,582,bicchiere,left_match,43.96269904,2021-12-20T13:14:45Z,339238,TRUE,2021-12-20T12:55:23Z,word,left,match,1,15.97222222222222
92,45,A,invalid,528,coniglio,left_match,43.96269904,2021-12-20T13:14:45Z,339238,TRUE,2021-12-20T12:55:23Z,word,left,match,1,15.97222222222222
93,44,A,invalid,564,chiave,left_match,43.96269904,2021-12-20T13:14:45Z,339238,TRUE,2021-12-20T12:55:23Z,word,left,match,1,15.97222222222222
99,58,A,invalid,537,termometro,left_match,43.96269904,2021-12-20T13:14:45Z,339238,TRUE,2021-12-20T12:55:23Z,word,left,match,1,15.97222222222222
104,40,A,invalid,663,banana,left_match,43.96269904,2021-12-20T13:14:45Z,339238,TRUE,2021-12-20T12:55:23Z,word,left,match,1,15.97222222222222
110,42,A,invalid,605,cane,left_match,43.96269904,2021-12-20T13:14:45Z,339238,TRUE,2021-12-20T12:55:23Z,word,left,match,1,15.97222222222222
114,43,A,invalid,572,cervo,left_match,43.96269904,2021-12-20T13:14:45Z,339238,TRUE,2021-12-20T12:55:23Z,word,left,match,1,15.97222222222222
136,124,L,invalid,591,frullatore,right_match,43.96269904,2021-12-20T13:14:45Z,339238,TRUE,2021-12-20T12:55:23Z,word,right,match,1,15.97222222222222
140,131,L,invalid,744,pomodoro,right_match,43.96269904,2021-12-20T13:14:45Z,339238,TRUE,2021-12-20T12:55:23Z,word,right,match,1,15.97222222222222
142,53,A,invalid,461,pomodoro,left_match,43.96269904,2021-12-20T13:14:45Z,339238,TRUE,2021-12-20T12:55:23Z,word,left,match,1,15.97222222222222
144,129,L,invalid,505,pinza,right_match,43.96269904,2021-12-20T13:14:45Z,339238,TRUE,2021-12-20T12:55:23Z,word,right,match,1,15.97222222222222
3,281,L,invalid,547,mandorla,right_mismatch,43.96269904,2021-12-20T13:14:45Z,339238,TRUE,2021-12-20T12:55:23Z,word,right,mismatch,1,14.583333333333334
5,286,L,invalid,513,pistola,right_mismatch,43.96269904,2021-12-20T13:14:45Z,339238,TRUE,2021-12-20T12:55:23Z,word,right,mismatch,1,14.583333333333334
7,209,A,invalid,632,pomodoro,left_mismatch,43.96269904,2021-12-20T13:14:45Z,339238,TRUE,2021-12-20T12:55:23Z,word,left,mismatch,1,14.583333333333334
28,279,L,invalid,528,coniglio,right_mismatch,43.96269904,2021-12-20T13:14:45Z,339238,TRUE,2021-12-20T12:55:23Z,word,right,mismatch,1,14.583333333333334
38,204,A,invalid,655,melone,left_mismatch,43.96269904,2021-12-20T13:14:45Z,339238,TRUE,2021-12-20T12:55:23Z,word,left,mismatch,1,14.583333333333334
45,213,A,invalid,677,telefono,left_mismatch,43.96269904,2021-12-20T13:14:45Z,339238,TRUE,2021-12-20T12:55:23Z,word,left,mismatch,1,14.583333333333334
50,275,L,invalid,446,bicchiere,right_mismatch,43.96269904,2021-12-20T13:14:45Z,339238,TRUE,2021-12-20T12:55:23Z,word,right,mismatch,1,14.583333333333334
55,207,A,invalid,489,pinza,left_mismatch,43.96269904,2021-12-20T13:14:45Z,339238,TRUE,2021-12-20T12:55:23Z,word,left,mismatch,1,14.583333333333334
65,212,A,invalid,558,telecomando,left_mismatch,43.96269904,2021-12-20T13:14:45Z,339238,TRUE,2021-12-20T12:55:23Z,word,left,mismatch,1,14.583333333333334
66,208,A,invalid,529,pistola,left_mismatch,43.96269904,2021-12-20T13:14:45Z,339238,TRUE,2021-12-20T12:55:23Z,word,left,mismatch,1,14.583333333333334
69,214,A,invalid,623,termometro,left_mismatch,43.96269904,2021-12-20T13:14:45Z,339238,TRUE,2021-12-20T12:55:23Z,word,left,mismatch,1,14.583333333333334
84,277,L,invalid,572,cervo,right_mismatch,43.96269904,2021-12-20T13:14:45Z,339238,TRUE,2021-12-20T12:55:23Z,word,right,mismatch,1,14.583333333333334
96,197,A,invalid,503,bicchiere,left_mismatch,43.96269904,2021-12-20T13:14:45Z,339238,TRUE,2021-12-20T12:55:23Z,word,left,mismatch,1,14.583333333333334
102,210,A,invalid,829,rasoio,left_mismatch,43.96269904,2021-12-20T13:14:45Z,339238,TRUE,2021-12-20T12:55:23Z,word,left,mismatch,1,14.583333333333334
111,198,A,invalid,935,cane,left_mismatch,43.96269904,2021-12-20T13:14:45Z,339238,TRUE,2021-12-20T12:55:23Z,word,left,mismatch,1,14.583333333333334
113,215,A,invalid,474,uva,left_mismatch,43.96269904,2021-12-20T13:14:45Z,339238,TRUE,2021-12-20T12:55:23Z,word,left,mismatch,1,14.583333333333334
121,205,A,invalid,586,mucca,left_mismatch,43.96269904,2021-12-20T13:14:45Z,339238,TRUE,2021-12-20T12:55:23Z,word,left,mismatch,1,14.583333333333334
122,289,L,invalid,546,tartaruga,right_mismatch,43.96269904,2021-12-20T13:14:45Z,339238,TRUE,2021-12-20T12:55:23Z,word,right,mismatch,1,14.583333333333334
125,291,L,invalid,494,telefono,right_mismatch,43.96269904,2021-12-20T13:14:45Z,339238,TRUE,2021-12-20T12:55:23Z,word,right,mismatch,1,14.583333333333334
126,200,A,invalid,469,chiave,left_mismatch,43.96269904,2021-12-20T13:14:45Z,339238,TRUE,2021-12-20T12:55:23Z,word,left,mismatch,1,14.583333333333334
143,202,A,invalid,853,frullatore,left_mismatch,43.96269904,2021-12-20T13:14:45Z,339238,TRUE,2021-12-20T12:55:23Z,word,left,mismatch,1,14.583333333333334
6,3,A,valid,421,cane,left_match,43.96269904,2021-12-20T13:14:45Z,339238,TRUE,2021-12-20T12:55:23Z,word,left,match,1,11.805555555555555
9,88,L,valid,553,mucca,right_match,43.96269904,2021-12-20T13:14:45Z,339238,TRUE,2021-12-20T12:55:23Z,word,right,match,1,11.805555555555555
12,17,A,valid,448,telecomando,left_match,43.96269904,2021-12-20T13:14:45Z,339238,TRUE,2021-12-20T12:55:23Z,word,left,match,1,11.805555555555555
14,98,L,valid,515,uva,right_match,43.96269904,2021-12-20T13:14:45Z,339238,TRUE,2021-12-20T12:55:23Z,word,right,match,1,11.805555555555555
32,8,A,valid,757,mandorla,left_match,43.96269904,2021-12-20T13:14:45Z,339238,TRUE,2021-12-20T12:55:23Z,word,left,match,1,11.805555555555555
37,80,L,valid,576,bicchiere,right_match,43.96269904,2021-12-20T13:14:45Z,339238,TRUE,2021-12-20T12:55:23Z,word,right,match,1,11.805555555555555
39,20,A,valid,504,uva,left_match,43.96269904,2021-12-20T13:14:45Z,339238,TRUE,2021-12-20T12:55:23Z,word,left,match,1,11.805555555555555
58,95,L,valid,448,telecomando,right_match,43.96269904,2021-12-20T13:14:45Z,339238,TRUE,2021-12-20T12:55:23Z,word,right,match,1,11.805555555555555
70,81,L,valid,579,cane,right_match,43.96269904,2021-12-20T13:14:45Z,339238,TRUE,2021-12-20T12:55:23Z,word,right,match,1,11.805555555555555
77,86,L,valid,452,mandorla,right_match,43.96269904,2021-12-20T13:14:45Z,339238,TRUE,2021-12-20T12:55:23Z,word,right,match,1,11.805555555555555
78,14,A,valid,401,pomodoro,left_match,43.96269904,2021-12-20T13:14:45Z,339238,TRUE,2021-12-20T12:55:23Z,word,left,match,1,11.805555555555555
91,13,A,valid,440,pistola,left_match,43.96269904,2021-12-20T13:14:45Z,339238,TRUE,2021-12-20T12:55:23Z,word,left,match,1,11.805555555555555
100,82,L,valid,555,cervo,right_match,43.96269904,2021-12-20T13:14:45Z,339238,TRUE,2021-12-20T12:55:23Z,word,right,match,1,11.805555555555555
105,10,A,valid,564,mucca,left_match,43.96269904,2021-12-20T13:14:45Z,339238,TRUE,2021-12-20T12:55:23Z,word,left,match,1,11.805555555555555
116,4,A,valid,591,cervo,left_match,43.96269904,2021-12-20T13:14:45Z,339238,TRUE,2021-12-20T12:55:23Z,word,left,match,1,11.805555555555555
117,87,L,valid,527,melone,right_match,43.96269904,2021-12-20T13:14:45Z,339238,TRUE,2021-12-20T12:55:23Z,word,right,match,1,11.805555555555555
135,12,A,valid,566,pinza,left_match,43.96269904,2021-12-20T13:14:45Z,339238,TRUE,2021-12-20T12:55:23Z,word,left,match,1,11.805555555555555
8,157,A,valid,516,banana,left_mismatch,43.96269904,2021-12-20T13:14:45Z,339238,TRUE,2021-12-20T12:55:23Z,word,left,mismatch,1,12.5
10,160,A,valid,563,cervo,left_mismatch,43.96269904,2021-12-20T13:14:45Z,339238,TRUE,2021-12-20T12:55:23Z,word,left,mismatch,1,12.5
18,166,A,valid,408,mucca,left_mismatch,43.96269904,2021-12-20T13:14:45Z,339238,TRUE,2021-12-20T12:55:23Z,word,left,mismatch,1,12.5
21,245,L,valid,634,occhiali,right_mismatch,43.96269904,2021-12-20T13:14:45Z,339238,TRUE,2021-12-20T12:55:23Z,word,right,mismatch,1,12.5
24,251,L,valid,644,telecomando,right_mismatch,43.96269904,2021-12-20T13:14:45Z,339238,TRUE,2021-12-20T12:55:23Z,word,right,mismatch,1,12.5
26,168,A,valid,475,pinza,left_mismatch,43.96269904,2021-12-20T13:14:45Z,339238,TRUE,2021-12-20T12:55:23Z,word,left,mismatch,1,12.5
40,161,A,valid,548,chiave,left_mismatch,43.96269904,2021-12-20T13:14:45Z,339238,TRUE,2021-12-20T12:55:23Z,word,left,mismatch,1,12.5
56,235,L,valid,576,banana,right_mismatch,43.96269904,2021-12-20T13:14:45Z,339238,TRUE,2021-12-20T12:55:23Z,word,right,mismatch,1,12.5
57,167,A,valid,557,occhiali,left_mismatch,43.96269904,2021-12-20T13:14:45Z,339238,TRUE,2021-12-20T12:55:23Z,word,left,mismatch,1,12.5
59,162,A,valid,555,coniglio,left_mismatch,43.96269904,2021-12-20T13:14:45Z,339238,TRUE,2021-12-20T12:55:23Z,word,left,mismatch,1,12.5
60,238,L,valid,442,cervo,right_mismatch,43.96269904,2021-12-20T13:14:45Z,339238,TRUE,2021-12-20T12:55:23Z,word,right,mismatch,1,12.5
62,250,L,valid,504,tartaruga,right_mismatch,43.96269904,2021-12-20T13:14:45Z,339238,TRUE,2021-12-20T12:55:23Z,word,right,mismatch,1,12.5
79,236,L,valid,702,bicchiere,right_mismatch,43.96269904,2021-12-20T13:14:45Z,339238,TRUE,2021-12-20T12:55:23Z,word,right,mismatch,1,12.5
80,248,L,valid,451,pomodoro,right_mismatch,43.96269904,2021-12-20T13:14:45Z,339238,TRUE,2021-12-20T12:55:23Z,word,right,mismatch,1,12.5
95,175,A,valid,451,termometro,left_mismatch,43.96269904,2021-12-20T13:14:45Z,339238,TRUE,2021-12-20T12:55:23Z,word,left,mismatch,1,12.5
97,239,L,valid,522,chiave,right_mismatch,43.96269904,2021-12-20T13:14:45Z,339238,TRUE,2021-12-20T12:55:23Z,word,right,mismatch,1,12.5
118,244,L,valid,620,mucca,right_mismatch,43.96269904,2021-12-20T13:14:45Z,339238,TRUE,2021-12-20T12:55:23Z,word,right,mismatch,1,12.5
124,174,A,valid,514,telefono,left_mismatch,43.96269904,2021-12-20T13:14:45Z,339238,TRUE,2021-12-20T12:55:23Z,word,left,mismatch,1,12.5
11,137,L,invalid,395,uva,right_match,80.57452838,2021-12-20T13:16:11Z,339239,TRUE,2021-12-20T12:55:47Z,word,right,match,1,6.944444444444445
23,54,A,invalid,335,rasoio,left_match,80.57452838,2021-12-20T13:16:11Z,339239,TRUE,2021-12-20T12:55:47Z,word,left,match,1,6.944444444444445
25,135,L,invalid,412,telefono,right_match,80.57452838,2021-12-20T13:16:11Z,339239,TRUE,2021-12-20T12:55:47Z,word,right,match,1,6.944444444444445
44,123,L,invalid,336,coniglio,right_match,80.57452838,2021-12-20T13:16:11Z,339239,TRUE,2021-12-20T12:55:47Z,word,right,match,1,6.944444444444445
70,124,L,invalid,374,frullatore,right_match,80.57452838,2021-12-20T13:16:11Z,339239,TRUE,2021-12-20T12:55:47Z,word,right,match,1,6.944444444444445
82,44,A,invalid,472,chiave,left_match,80.57452838,2021-12-20T13:16:11Z,339239,TRUE,2021-12-20T12:55:47Z,word,left,match,1,6.944444444444445
85,133,L,invalid,485,tartaruga,right_match,80.57452838,2021-12-20T13:16:11Z,339239,TRUE,2021-12-20T12:55:47Z,word,right,match,1,6.944444444444445
89,48,A,invalid,478,melone,left_match,80.57452838,2021-12-20T13:16:11Z,339239,TRUE,2021-12-20T12:55:47Z,word,left,match,1,6.944444444444445
102,57,A,invalid,567,telefono,left_match,80.57452838,2021-12-20T13:16:11Z,339239,TRUE,2021-12-20T12:55:47Z,word,left,match,1,6.944444444444445
128,41,A,invalid,385,bicchiere,left_match,80.57452838,2021-12-20T13:16:11Z,339239,TRUE,2021-12-20T12:55:47Z,word,left,match,1,6.944444444444445
13,212,A,invalid,472,telecomando,left_mismatch,80.57452838,2021-12-20T13:16:11Z,339239,TRUE,2021-12-20T12:55:47Z,word,left,mismatch,1,11.11111111111111
32,287,L,invalid,460,pomodoro,right_mismatch,80.57452838,2021-12-20T13:16:11Z,339239,TRUE,2021-12-20T12:55:47Z,word,right,mismatch,1,11.11111111111111
33,277,L,invalid,675,cervo,right_mismatch,80.57452838,2021-12-20T13:16:11Z,339239,TRUE,2021-12-20T12:55:47Z,word,right,mismatch,1,11.11111111111111
34,198,A,invalid,375,cane,left_mismatch,80.57452838,2021-12-20T13:16:11Z,339239,TRUE,2021-12-20T12:55:47Z,word,left,mismatch,1,11.11111111111111
36,282,L,invalid,440,melone,right_mismatch,80.57452838,2021-12-20T13:16:11Z,339239,TRUE,2021-12-20T12:55:47Z,word,right,mismatch,1,11.11111111111111
37,289,L,invalid,355,tartaruga,right_mismatch,80.57452838,2021-12-20T13:16:11Z,339239,TRUE,2021-12-20T12:55:47Z,word,right,mismatch,1,11.11111111111111
55,203,A,invalid,362,mandorla,left_mismatch,80.57452838,2021-12-20T13:16:11Z,339239,TRUE,2021-12-20T12:55:47Z,word,left,mismatch,1,11.11111111111111
56,293,L,invalid,390,uva,right_mismatch,80.57452838,2021-12-20T13:16:11Z,339239,TRUE,2021-12-20T12:55:47Z,word,right,mismatch,1,11.11111111111111
57,199,A,invalid,403,cervo,left_mismatch,80.57452838,2021-12-20T13:16:11Z,339239,TRUE,2021-12-20T12:55:47Z,word,left,mismatch,1,11.11111111111111
60,215,A,invalid,395,uva,left_mismatch,80.57452838,2021-12-20T13:16:11Z,339239,TRUE,2021-12-20T12:55:47Z,word,left,mismatch,1,11.11111111111111
66,290,L,invalid,624,telecomando,right_mismatch,80.57452838,2021-12-20T13:16:11Z,339239,TRUE,2021-12-20T12:55:47Z,word,right,mismatch,1,11.11111111111111
68,207,A,invalid,328,pinza,left_mismatch,80.57452838,2021-12-20T13:16:11Z,339239,TRUE,2021-12-20T12:55:47Z,word,left,mismatch,1,11.11111111111111
73,280,L,invalid,520,frullatore,right_mismatch,80.57452838,2021-12-20T13:16:11Z,339239,TRUE,2021-12-20T12:55:47Z,word,right,mismatch,1,11.11111111111111
79,283,L,invalid,390,mucca,right_mismatch,80.57452838,2021-12-20T13:16:11Z,339239,TRUE,2021-12-20T12:55:47Z,word,right,mismatch,1,11.11111111111111
118,291,L,invalid,698,telefono,right_mismatch,80.57452838,2021-12-20T13:16:11Z,339239,TRUE,2021-12-20T12:55:47Z,word,right,mismatch,1,11.11111111111111
135,276,L,invalid,472,cane,right_mismatch,80.57452838,2021-12-20T13:16:11Z,339239,TRUE,2021-12-20T12:55:47Z,word,right,mismatch,1,11.11111111111111
7,89,L,valid,185,occhiali,right_match,80.57452838,2021-12-20T13:16:11Z,339239,TRUE,2021-12-20T12:55:47Z,word,right,match,1,18.75
10,16,A,valid,428,tartaruga,left_match,80.57452838,2021-12-20T13:16:11Z,339239,TRUE,2021-12-20T12:55:47Z,word,left,match,1,18.75
16,93,L,valid,408,rasoio,right_match,80.57452838,2021-12-20T13:16:11Z,339239,TRUE,2021-12-20T12:55:47Z,word,right,match,1,18.75
22,83,L,valid,468,chiave,right_match,80.57452838,2021-12-20T13:16:11Z,339239,TRUE,2021-12-20T12:55:47Z,word,right,match,1,18.75
27,10,A,valid,396,mucca,left_match,80.57452838,2021-12-20T13:16:11Z,339239,TRUE,2021-12-20T12:55:47Z,word,left,match,1,18.75
31,17,A,valid,515,telecomando,left_match,80.57452838,2021-12-20T13:16:11Z,339239,TRUE,2021-12-20T12:55:47Z,word,left,match,1,18.75
35,6,A,valid,517,coniglio,left_match,80.57452838,2021-12-20T13:16:11Z,339239,TRUE,2021-12-20T12:55:47Z,word,left,match,1,18.75
41,80,L,valid,345,bicchiere,right_match,80.57452838,2021-12-20T13:16:11Z,339239,TRUE,2021-12-20T12:55:47Z,word,right,match,1,18.75
48,79,L,valid,373,banana,right_match,80.57452838,2021-12-20T13:16:11Z,339239,TRUE,2021-12-20T12:55:47Z,word,right,match,1,18.75
52,18,A,valid,453,telefono,left_match,80.57452838,2021-12-20T13:16:11Z,339239,TRUE,2021-12-20T12:55:47Z,word,left,match,1,18.75
63,92,L,valid,467,pomodoro,right_match,80.57452838,2021-12-20T13:16:11Z,339239,TRUE,2021-12-20T12:55:47Z,word,right,match,1,18.75
74,95,L,valid,443,telecomando,right_match,80.57452838,2021-12-20T13:16:11Z,339239,TRUE,2021-12-20T12:55:47Z,word,right,match,1,18.75
76,9,A,valid,270,melone,left_match,80.57452838,2021-12-20T13:16:11Z,339239,TRUE,2021-12-20T12:55:47Z,word,left,match,1,18.75
77,91,L,valid,133,pistola,right_match,80.57452838,2021-12-20T13:16:11Z,339239,TRUE,2021-12-20T12:55:47Z,word,right,match,1,18.75
86,84,L,valid,550,coniglio,right_match,80.57452838,2021-12-20T13:16:11Z,339239,TRUE,2021-12-20T12:55:47Z,word,right,match,1,18.75
96,13,A,valid,291,pistola,left_match,80.57452838,2021-12-20T13:16:11Z,339239,TRUE,2021-12-20T12:55:47Z,word,left,match,1,18.75
99,3,A,valid,392,cane,left_match,80.57452838,2021-12-20T13:16:11Z,339239,TRUE,2021-12-20T12:55:47Z,word,left,match,1,18.75
100,7,A,valid,446,frullatore,left_match,80.57452838,2021-12-20T13:16:11Z,339239,TRUE,2021-12-20T12:55:47Z,word,left,match,1,18.75
104,88,L,valid,879,mucca,right_match,80.57452838,2021-12-20T13:16:11Z,339239,TRUE,2021-12-20T12:55:47Z,word,right,match,1,18.75
112,4,A,valid,293,cervo,left_match,80.57452838,2021-12-20T13:16:11Z,339239,TRUE,2021-12-20T12:55:47Z,word,left,match,1,18.75
113,20,A,valid,264,uva,left_match,80.57452838,2021-12-20T13:16:11Z,339239,TRUE,2021-12-20T12:55:47Z,word,left,match,1,18.75
116,2,A,valid,338,bicchiere,left_match,80.57452838,2021-12-20T13:16:11Z,339239,TRUE,2021-12-20T12:55:47Z,word,left,match,1,18.75
122,85,L,valid,364,frullatore,right_match,80.57452838,2021-12-20T13:16:11Z,339239,TRUE,2021-12-20T12:55:47Z,word,right,match,1,18.75
124,8,A,valid,346,mandorla,left_match,80.57452838,2021-12-20T13:16:11Z,339239,TRUE,2021-12-20T12:55:47Z,word,left,match,1,18.75
129,14,A,valid,517,pomodoro,left_match,80.57452838,2021-12-20T13:16:11Z,339239,TRUE,2021-12-20T12:55:47Z,word,left,match,1,18.75
137,82,L,valid,300,cervo,right_match,80.57452838,2021-12-20T13:16:11Z,339239,TRUE,2021-12-20T12:55:47Z,word,right,match,1,18.75
144,5,A,valid,333,chiave,left_match,80.57452838,2021-12-20T13:16:11Z,339239,TRUE,2021-12-20T12:55:47Z,word,left,match,1,18.75
3,176,A,valid,293,uva,left_mismatch,80.57452838,2021-12-20T13:16:11Z,339239,TRUE,2021-12-20T12:55:47Z,word,left,mismatch,1,11.805555555555555
15,239,L,valid,291,chiave,right_mismatch,80.57452838,2021-12-20T13:16:11Z,339239,TRUE,2021-12-20T12:55:47Z,word,right,mismatch,1,11.805555555555555
19,244,L,valid,267,mucca,right_mismatch,80.57452838,2021-12-20T13:16:11Z,339239,TRUE,2021-12-20T12:55:47Z,word,right,mismatch,1,11.805555555555555
26,251,L,valid,393,telecomando,right_mismatch,80.57452838,2021-12-20T13:16:11Z,339239,TRUE,2021-12-20T12:55:47Z,word,right,mismatch,1,11.805555555555555
29,235,L,valid,631,banana,right_mismatch,80.57452838,2021-12-20T13:16:11Z,339239,TRUE,2021-12-20T12:55:47Z,word,right,mismatch,1,11.805555555555555
39,238,L,valid,255,cervo,right_mismatch,80.57452838,2021-12-20T13:16:11Z,339239,TRUE,2021-12-20T12:55:47Z,word,right,mismatch,1,11.805555555555555
40,159,A,valid,250,cane,left_mismatch,80.57452838,2021-12-20T13:16:11Z,339239,TRUE,2021-12-20T12:55:47Z,word,left,mismatch,1,11.805555555555555
58,245,L,valid,356,occhiali,right_mismatch,80.57452838,2021-12-20T13:16:11Z,339239,TRUE,2021-12-20T12:55:47Z,word,right,mismatch,1,11.805555555555555
65,165,A,valid,513,melone,left_mismatch,80.57452838,2021-12-20T13:16:11Z,339239,TRUE,2021-12-20T12:55:47Z,word,left,mismatch,1,11.805555555555555
69,157,A,valid,479,banana,left_mismatch,80.57452838,2021-12-20T13:16:11Z,339239,TRUE,2021-12-20T12:55:47Z,word,left,mismatch,1,11.805555555555555
72,249,L,valid,337,rasoio,right_mismatch,80.57452838,2021-12-20T13:16:11Z,339239,TRUE,2021-12-20T12:55:47Z,word,right,mismatch,1,11.805555555555555
75,174,A,valid,619,telefono,left_mismatch,80.57452838,2021-12-20T13:16:11Z,339239,TRUE,2021-12-20T12:55:47Z,word,left,mismatch,1,11.805555555555555
90,246,L,valid,687,pinza,right_mismatch,80.57452838,2021-12-20T13:16:11Z,339239,TRUE,2021-12-20T12:55:47Z,word,right,mismatch,1,11.805555555555555
98,158,A,valid,489,bicchiere,left_mismatch,80.57452838,2021-12-20T13:16:11Z,339239,TRUE,2021-12-20T12:55:47Z,word,left,mismatch,1,11.805555555555555
105,168,A,valid,423,pinza,left_mismatch,80.57452838,2021-12-20T13:16:11Z,339239,TRUE,2021-12-20T12:55:47Z,word,left,mismatch,1,11.805555555555555
114,236,L,valid,497,bicchiere,right_mismatch,80.57452838,2021-12-20T13:16:11Z,339239,TRUE,2021-12-20T12:55:47Z,word,right,mismatch,1,11.805555555555555
134,173,A,valid,366,telecomando,left_mismatch,80.57452838,2021-12-20T13:16:11Z,339239,TRUE,2021-12-20T12:55:47Z,word,left,mismatch,1,11.805555555555555
12,134,L,invalid,669,telecomando,right_match,139.852812,2021-12-20T13:25:25Z,339240,TRUE,2021-12-20T12:56:13Z,word,right,match,1,11.11111111111111
26,57,A,invalid,445,telefono,left_match,139.852812,2021-12-20T13:25:25Z,339240,TRUE,2021-12-20T12:56:13Z,word,left,match,1,11.11111111111111
34,41,A,invalid,666,bicchiere,left_match,139.852812,2021-12-20T13:25:25Z,339240,TRUE,2021-12-20T12:56:13Z,word,left,match,1,11.11111111111111
45,44,A,invalid,671,chiave,left_match,139.852812,2021-12-20T13:25:25Z,339240,TRUE,2021-12-20T12:56:13Z,word,left,match,1,11.11111111111111
55,52,A,invalid,514,pistola,left_match,139.852812,2021-12-20T13:25:25Z,339240,TRUE,2021-12-20T12:56:13Z,word,left,match,1,11.11111111111111
70,127,L,invalid,520,mucca,right_match,139.852812,2021-12-20T13:25:25Z,339240,TRUE,2021-12-20T12:56:13Z,word,right,match,1,11.11111111111111
81,58,A,invalid,761,termometro,left_match,139.852812,2021-12-20T13:25:25Z,339240,TRUE,2021-12-20T12:56:13Z,word,left,match,1,11.11111111111111
97,46,A,invalid,791,frullatore,left_match,139.852812,2021-12-20T13:25:25Z,339240,TRUE,2021-12-20T12:56:13Z,word,left,match,1,11.11111111111111
102,128,L,invalid,426,occhiali,right_match,139.852812,2021-12-20T13:25:25Z,339240,TRUE,2021-12-20T12:56:13Z,word,right,match,1,11.11111111111111
104,55,A,invalid,477,tartaruga,left_match,139.852812,2021-12-20T13:25:25Z,339240,TRUE,2021-12-20T12:56:13Z,word,left,match,1,11.11111111111111
105,119,L,invalid,577,bicchiere,right_match,139.852812,2021-12-20T13:25:25Z,339240,TRUE,2021-12-20T12:56:13Z,word,right,match,1,11.11111111111111
110,135,L,invalid,486,telefono,right_match,139.852812,2021-12-20T13:25:25Z,339240,TRUE,2021-12-20T12:56:13Z,word,right,match,1,11.11111111111111
111,137,L,invalid,525,uva,right_match,139.852812,2021-12-20T13:25:25Z,339240,TRUE,2021-12-20T12:56:13Z,word,right,match,1,11.11111111111111
131,132,L,invalid,489,rasoio,right_match,139.852812,2021-12-20T13:25:25Z,339240,TRUE,2021-12-20T12:56:13Z,word,right,match,1,11.11111111111111
134,53,A,invalid,593,pomodoro,left_match,139.852812,2021-12-20T13:25:25Z,339240,TRUE,2021-12-20T12:56:13Z,word,left,match,1,11.11111111111111
137,131,L,invalid,565,pomodoro,right_match,139.852812,2021-12-20T13:25:25Z,339240,TRUE,2021-12-20T12:56:13Z,word,right,match,1,11.11111111111111
8,280,L,invalid,840,frullatore,right_mismatch,139.852812,2021-12-20T13:25:25Z,339240,TRUE,2021-12-20T12:56:13Z,word,right,mismatch,1,9.722222222222223
14,209,A,invalid,495,pomodoro,left_mismatch,139.852812,2021-12-20T13:25:25Z,339240,TRUE,2021-12-20T12:56:13Z,word,left,mismatch,1,9.722222222222223
16,287,L,invalid,472,pomodoro,right_mismatch,139.852812,2021-12-20T13:25:25Z,339240,TRUE,2021-12-20T12:56:13Z,word,right,mismatch,1,9.722222222222223
19,282,L,invalid,449,melone,right_mismatch,139.852812,2021-12-20T13:25:25Z,339240,TRUE,2021-12-20T12:56:13Z,word,right,mismatch,1,9.722222222222223
31,204,A,invalid,584,melone,left_mismatch,139.852812,2021-12-20T13:25:25Z,339240,TRUE,2021-12-20T12:56:13Z,word,left,mismatch,1,9.722222222222223
32,212,A,invalid,510,telecomando,left_mismatch,139.852812,2021-12-20T13:25:25Z,339240,TRUE,2021-12-20T12:56:13Z,word,left,mismatch,1,9.722222222222223
41,285,L,invalid,992,pinza,right_mismatch,139.852812,2021-12-20T13:25:25Z,339240,TRUE,2021-12-20T12:56:13Z,word,right,mismatch,1,9.722222222222223
48,290,L,invalid,614,telecomando,right_mismatch,139.852812,2021-12-20T13:25:25Z,339240,TRUE,2021-12-20T12:56:13Z,word,right,mismatch,1,9.722222222222223
53,214,A,invalid,596,termometro,left_mismatch,139.852812,2021-12-20T13:25:25Z,339240,TRUE,2021-12-20T12:56:13Z,word,left,mismatch,1,9.722222222222223
57,289,L,invalid,555,tartaruga,right_mismatch,139.852812,2021-12-20T13:25:25Z,339240,TRUE,2021-12-20T12:56:13Z,word,right,mismatch,1,9.722222222222223
69,281,L,invalid,521,mandorla,right_mismatch,139.852812,2021-12-20T13:25:25Z,339240,TRUE,2021-12-20T12:56:13Z,word,right,mismatch,1,9.722222222222223
86,197,A,invalid,587,bicchiere,left_mismatch,139.852812,2021-12-20T13:25:25Z,339240,TRUE,2021-12-20T12:56:13Z,word,left,mismatch,1,9.722222222222223
87,279,L,invalid,404,coniglio,right_mismatch,139.852812,2021-12-20T13:25:25Z,339240,TRUE,2021-12-20T12:56:13Z,word,right,mismatch,1,9.722222222222223
96,205,A,invalid,500,mucca,left_mismatch,139.852812,2021-12-20T13:25:25Z,339240,TRUE,2021-12-20T12:56:13Z,word,left,mismatch,1,9.722222222222223
10,18,A,valid,520,telefono,left_match,139.852812,2021-12-20T13:25:25Z,339240,TRUE,2021-12-20T12:56:13Z,word,left,match,1,13.88888888888889
22,20,A,valid,622,uva,left_match,139.852812,2021-12-20T13:25:25Z,339240,TRUE,2021-12-20T12:56:13Z,word,left,match,1,13.88888888888889
25,98,L,valid,505,uva,right_match,139.852812,2021-12-20T13:25:25Z,339240,TRUE,2021-12-20T12:56:13Z,word,right,match,1,13.88888888888889
46,90,L,valid,656,pinza,right_match,139.852812,2021-12-20T13:25:25Z,339240,TRUE,2021-12-20T12:56:13Z,word,right,match,1,13.88888888888889
61,13,A,valid,425,pistola,left_match,139.852812,2021-12-20T13:25:25Z,339240,TRUE,2021-12-20T12:56:13Z,word,left,match,1,13.88888888888889
68,91,L,valid,496,pistola,right_match,139.852812,2021-12-20T13:25:25Z,339240,TRUE,2021-12-20T12:56:13Z,word,right,match,1,13.88888888888889
71,86,L,valid,486,mandorla,right_match,139.852812,2021-12-20T13:25:25Z,339240,TRUE,2021-12-20T12:56:13Z,word,right,match,1,13.88888888888889
73,81,L,valid,351,cane,right_match,139.852812,2021-12-20T13:25:25Z,339240,TRUE,2021-12-20T12:56:13Z,word,right,match,1,13.88888888888889
83,85,L,valid,485,frullatore,right_match,139.852812,2021-12-20T13:25:25Z,339240,TRUE,2021-12-20T12:56:13Z,word,right,match,1,13.88888888888889
85,7,A,valid,508,frullatore,left_match,139.852812,2021-12-20T13:25:25Z,339240,TRUE,2021-12-20T12:56:13Z,word,left,match,1,13.88888888888889
90,87,L,valid,691,melone,right_match,139.852812,2021-12-20T13:25:25Z,339240,TRUE,2021-12-20T12:56:13Z,word,right,match,1,13.88888888888889
92,79,L,valid,497,banana,right_match,139.852812,2021-12-20T13:25:25Z,339240,TRUE,2021-12-20T12:56:13Z,word,right,match,1,13.88888888888889
112,5,A,valid,585,chiave,left_match,139.852812,2021-12-20T13:25:25Z,339240,TRUE,2021-12-20T12:56:13Z,word,left,match,1,13.88888888888889
118,17,A,valid,688,telecomando,left_match,139.852812,2021-12-20T13:25:25Z,339240,TRUE,2021-12-20T12:56:13Z,word,left,match,1,13.88888888888889
126,12,A,valid,421,pinza,left_match,139.852812,2021-12-20T13:25:25Z,339240,TRUE,2021-12-20T12:56:13Z,word,left,match,1,13.88888888888889
129,10,A,valid,463,mucca,left_match,139.852812,2021-12-20T13:25:25Z,339240,TRUE,2021-12-20T12:56:13Z,word,left,match,1,13.88888888888889
132,3,A,valid,409,cane,left_match,139.852812,2021-12-20T13:25:25Z,339240,TRUE,2021-12-20T12:56:13Z,word,left,match,1,13.88888888888889
136,82,L,valid,426,cervo,right_match,139.852812,2021-12-20T13:25:25Z,339240,TRUE,2021-12-20T12:56:13Z,word,right,match,1,13.88888888888889
139,88,L,valid,411,mucca,right_match,139.852812,2021-12-20T13:25:25Z,339240,TRUE,2021-12-20T12:56:13Z,word,right,match,1,13.88888888888889
140,92,L,valid,413,pomodoro,right_match,139.852812,2021-12-20T13:25:25Z,339240,TRUE,2021-12-20T12:56:13Z,word,right,match,1,13.88888888888889
1,240,L,valid,927,coniglio,right_mismatch,139.852812,2021-12-20T13:25:25Z,339240,TRUE,2021-12-20T12:56:13Z,word,right,mismatch,1,13.88888888888889
3,172,A,valid,683,tartaruga,left_mismatch,139.852812,2021-12-20T13:25:25Z,339240,TRUE,2021-12-20T12:56:13Z,word,left,mismatch,1,13.88888888888889
4,248,L,valid,686,pomodoro,right_mismatch,139.852812,2021-12-20T13:25:25Z,339240,TRUE,2021-12-20T12:56:13Z,word,right,mismatch,1,13.88888888888889
5,245,L,valid,908,occhiali,right_mismatch,139.852812,2021-12-20T13:25:25Z,339240,TRUE,2021-12-20T12:56:13Z,word,right,mismatch,1,13.88888888888889
13,166,A,valid,670,mucca,left_mismatch,139.852812,2021-12-20T13:25:25Z,339240,TRUE,2021-12-20T12:56:13Z,word,left,mismatch,1,13.88888888888889
29,242,L,valid,517,mandorla,right_mismatch,139.852812,2021-12-20T13:25:25Z,339240,TRUE,2021-12-20T12:56:13Z,word,right,mismatch,1,13.88888888888889
59,163,A,valid,585,frullatore,left_mismatch,139.852812,2021-12-20T13:25:25Z,339240,TRUE,2021-12-20T12:56:13Z,word,left,mismatch,1,13.88888888888889
63,157,A,valid,668,banana,left_mismatch,139.852812,2021-12-20T13:25:25Z,339240,TRUE,2021-12-20T12:56:13Z,word,left,mismatch,1,13.88888888888889
67,164,A,valid,501,mandorla,left_mismatch,139.852812,2021-12-20T13:25:25Z,339240,TRUE,2021-12-20T12:56:13Z,word,left,mismatch,1,13.88888888888889
72,173,A,valid,657,telecomando,left_mismatch,139.852812,2021-12-20T13:25:25Z,339240,TRUE,2021-12-20T12:56:13Z,word,left,mismatch,1,13.88888888888889
77,243,L,valid,529,melone,right_mismatch,139.852812,2021-12-20T13:25:25Z,339240,TRUE,2021-12-20T12:56:13Z,word,right,mismatch,1,13.88888888888889
93,236,L,valid,464,bicchiere,right_mismatch,139.852812,2021-12-20T13:25:25Z,339240,TRUE,2021-12-20T12:56:13Z,word,right,mismatch,1,13.88888888888889
95,174,A,valid,427,telefono,left_mismatch,139.852812,2021-12-20T13:25:25Z,339240,TRUE,2021-12-20T12:56:13Z,word,left,mismatch,1,13.88888888888889
98,241,L,valid,331,frullatore,right_mismatch,139.852812,2021-12-20T13:25:25Z,339240,TRUE,2021-12-20T12:56:13Z,word,right,mismatch,1,13.88888888888889
107,168,A,valid,593,pinza,left_mismatch,139.852812,2021-12-20T13:25:25Z,339240,TRUE,2021-12-20T12:56:13Z,word,left,mismatch,1,13.88888888888889
108,244,L,valid,466,mucca,right_mismatch,139.852812,2021-12-20T13:25:25Z,339240,TRUE,2021-12-20T12:56:13Z,word,right,mismatch,1,13.88888888888889
117,246,L,valid,397,pinza,right_mismatch,139.852812,2021-12-20T13:25:25Z,339240,TRUE,2021-12-20T12:56:13Z,word,right,mismatch,1,13.88888888888889
133,237,L,valid,572,cane,right_mismatch,139.852812,2021-12-20T13:25:25Z,339240,TRUE,2021-12-20T12:56:13Z,word,right,mismatch,1,13.88888888888889
144,161,A,valid,455,chiave,left_mismatch,139.852812,2021-12-20T13:25:25Z,339240,TRUE,2021-12-20T12:56:13Z,word,left,mismatch,1,13.88888888888889
7,45,A,invalid,428,coniglio,left_match,69.89057859,2021-12-20T13:14:40Z,339258,TRUE,2021-12-20T12:58:18Z,word,left,match,1,10.416666666666668
15,136,L,invalid,387,termometro,right_match,69.89057859,2021-12-20T13:14:40Z,339258,TRUE,2021-12-20T12:58:18Z,word,right,match,1,10.416666666666668
24,52,A,invalid,384,pistola,left_match,69.89057859,2021-12-20T13:14:40Z,339258,TRUE,2021-12-20T12:58:18Z,word,left,match,1,10.416666666666668
36,137,L,invalid,396,uva,right_match,69.89057859,2021-12-20T13:14:40Z,339258,TRUE,2021-12-20T12:58:18Z,word,right,match,1,10.416666666666668
63,54,A,invalid,521,rasoio,left_match,69.89057859,2021-12-20T13:14:40Z,339258,TRUE,2021-12-20T12:58:18Z,word,left,match,1,10.416666666666668
65,122,L,invalid,408,chiave,right_match,69.89057859,2021-12-20T13:14:40Z,339258,TRUE,2021-12-20T12:58:18Z,word,right,match,1,10.416666666666668
68,121,L,invalid,418,cervo,right_match,69.89057859,2021-12-20T13:14:40Z,339258,TRUE,2021-12-20T12:58:18Z,word,right,match,1,10.416666666666668
70,127,L,invalid,427,mucca,right_match,69.89057859,2021-12-20T13:14:40Z,339258,TRUE,2021-12-20T12:58:18Z,word,right,match,1,10.416666666666668
75,133,L,invalid,407,tartaruga,right_match,69.89057859,2021-12-20T13:14:40Z,339258,TRUE,2021-12-20T12:58:18Z,word,right,match,1,10.416666666666668
76,123,L,invalid,383,coniglio,right_match,69.89057859,2021-12-20T13:14:40Z,339258,TRUE,2021-12-20T12:58:18Z,word,right,match,1,10.416666666666668
78,55,A,invalid,540,tartaruga,left_match,69.89057859,2021-12-20T13:14:40Z,339258,TRUE,2021-12-20T12:58:18Z,word,left,match,1,10.416666666666668
99,120,L,invalid,524,cane,right_match,69.89057859,2021-12-20T13:14:40Z,339258,TRUE,2021-12-20T12:58:18Z,word,right,match,1,10.416666666666668
113,47,A,invalid,389,mandorla,left_match,69.89057859,2021-12-20T13:14:40Z,339258,TRUE,2021-12-20T12:58:18Z,word,left,match,1,10.416666666666668
119,48,A,invalid,561,melone,left_match,69.89057859,2021-12-20T13:14:40Z,339258,TRUE,2021-12-20T12:58:18Z,word,left,match,1,10.416666666666668
138,53,A,invalid,403,pomodoro,left_match,69.89057859,2021-12-20T13:14:40Z,339258,TRUE,2021-12-20T12:58:18Z,word,left,match,1,10.416666666666668
6,205,A,invalid,556,mucca,left_mismatch,69.89057859,2021-12-20T13:14:40Z,339258,TRUE,2021-12-20T12:58:18Z,word,left,mismatch,1,13.88888888888889
11,197,A,invalid,424,bicchiere,left_mismatch,69.89057859,2021-12-20T13:14:40Z,339258,TRUE,2021-12-20T12:58:18Z,word,left,mismatch,1,13.88888888888889
16,213,A,invalid,433,telefono,left_mismatch,69.89057859,2021-12-20T13:14:40Z,339258,TRUE,2021-12-20T12:58:18Z,word,left,mismatch,1,13.88888888888889
23,281,L,invalid,550,mandorla,right_mismatch,69.89057859,2021-12-20T13:14:40Z,339258,TRUE,2021-12-20T12:58:18Z,word,right,mismatch,1,13.88888888888889
25,211,A,invalid,399,tartaruga,left_mismatch,69.89057859,2021-12-20T13:14:40Z,339258,TRUE,2021-12-20T12:58:18Z,word,left,mismatch,1,13.88888888888889
28,274,L,invalid,383,banana,right_mismatch,69.89057859,2021-12-20T13:14:40Z,339258,TRUE,2021-12-20T12:58:18Z,word,right,mismatch,1,13.88888888888889
41,275,L,invalid,405,bicchiere,right_mismatch,69.89057859,2021-12-20T13:14:40Z,339258,TRUE,2021-12-20T12:58:18Z,word,right,mismatch,1,13.88888888888889
42,293,L,invalid,384,uva,right_mismatch,69.89057859,2021-12-20T13:14:40Z,339258,TRUE,2021-12-20T12:58:18Z,word,right,mismatch,1,13.88888888888889
46,214,A,invalid,384,termometro,left_mismatch,69.89057859,2021-12-20T13:14:40Z,339258,TRUE,2021-12-20T12:58:18Z,word,left,mismatch,1,13.88888888888889
64,210,A,invalid,389,rasoio,left_mismatch,69.89057859,2021-12-20T13:14:40Z,339258,TRUE,2021-12-20T12:58:18Z,word,left,mismatch,1,13.88888888888889
66,199,A,invalid,419,cervo,left_mismatch,69.89057859,2021-12-20T13:14:40Z,339258,TRUE,2021-12-20T12:58:18Z,word,left,mismatch,1,13.88888888888889
67,196,A,invalid,525,banana,left_mismatch,69.89057859,2021-12-20T13:14:40Z,339258,TRUE,2021-12-20T12:58:18Z,word,left,mismatch,1,13.88888888888889
69,277,L,invalid,427,cervo,right_mismatch,69.89057859,2021-12-20T13:14:40Z,339258,TRUE,2021-12-20T12:58:18Z,word,right,mismatch,1,13.88888888888889
74,282,L,invalid,401,melone,right_mismatch,69.89057859,2021-12-20T13:14:40Z,339258,TRUE,2021-12-20T12:58:18Z,word,right,mismatch,1,13.88888888888889
93,279,L,invalid,408,coniglio,right_mismatch,69.89057859,2021-12-20T13:14:40Z,339258,TRUE,2021-12-20T12:58:18Z,word,right,mismatch,1,13.88888888888889
96,283,L,invalid,398,mucca,right_mismatch,69.89057859,2021-12-20T13:14:40Z,339258,TRUE,2021-12-20T12:58:18Z,word,right,mismatch,1,13.88888888888889
97,289,L,invalid,422,tartaruga,right_mismatch,69.89057859,2021-12-20T13:14:40Z,339258,TRUE,2021-12-20T12:58:18Z,word,right,mismatch,1,13.88888888888889
109,285,L,invalid,547,pinza,right_mismatch,69.89057859,2021-12-20T13:14:40Z,339258,TRUE,2021-12-20T12:58:18Z,word,right,mismatch,1,13.88888888888889
115,208,A,invalid,522,pistola,left_mismatch,69.89057859,2021-12-20T13:14:40Z,339258,TRUE,2021-12-20T12:58:18Z,word,left,mismatch,1,13.88888888888889
126,292,L,invalid,415,termometro,right_mismatch,69.89057859,2021-12-20T13:14:40Z,339258,TRUE,2021-12-20T12:58:18Z,word,right,mismatch,1,13.88888888888889
3,90,L,valid,256,pinza,right_match,69.89057859,2021-12-20T13:14:40Z,339258,TRUE,2021-12-20T12:58:18Z,word,right,match,1,10.416666666666668
9,84,L,valid,403,coniglio,right_match,69.89057859,2021-12-20T13:14:40Z,339258,TRUE,2021-12-20T12:58:18Z,word,right,match,1,10.416666666666668
13,3,A,valid,534,cane,left_match,69.89057859,2021-12-20T13:14:40Z,339258,TRUE,2021-12-20T12:58:18Z,word,left,match,1,10.416666666666668
34,87,L,valid,398,melone,right_match,69.89057859,2021-12-20T13:14:40Z,339258,TRUE,2021-12-20T12:58:18Z,word,right,match,1,10.416666666666668
47,17,A,valid,407,telecomando,left_match,69.89057859,2021-12-20T13:14:40Z,339258,TRUE,2021-12-20T12:58:18Z,word,left,match,1,10.416666666666668
48,93,L,valid,415,rasoio,right_match,69.89057859,2021-12-20T13:14:40Z,339258,TRUE,2021-12-20T12:58:18Z,word,right,match,1,10.416666666666668
54,6,A,valid,412,coniglio,left_match,69.89057859,2021-12-20T13:14:40Z,339258,TRUE,2021-12-20T12:58:18Z,word,left,match,1,10.416666666666668
61,88,L,valid,392,mucca,right_match,69.89057859,2021-12-20T13:14:40Z,339258,TRUE,2021-12-20T12:58:18Z,word,right,match,1,10.416666666666668
79,7,A,valid,400,frullatore,left_match,69.89057859,2021-12-20T13:14:40Z,339258,TRUE,2021-12-20T12:58:18Z,word,left,match,1,10.416666666666668
112,85,L,valid,534,frullatore,right_match,69.89057859,2021-12-20T13:14:40Z,339258,TRUE,2021-12-20T12:58:18Z,word,right,match,1,10.416666666666668
125,11,A,valid,420,occhiali,left_match,69.89057859,2021-12-20T13:14:40Z,339258,TRUE,2021-12-20T12:58:18Z,word,left,match,1,10.416666666666668
128,4,A,valid,389,cervo,left_match,69.89057859,2021-12-20T13:14:40Z,339258,TRUE,2021-12-20T12:58:18Z,word,left,match,1,10.416666666666668
131,98,L,valid,444,uva,right_match,69.89057859,2021-12-20T13:14:40Z,339258,TRUE,2021-12-20T12:58:18Z,word,right,match,1,10.416666666666668
140,2,A,valid,400,bicchiere,left_match,69.89057859,2021-12-20T13:14:40Z,339258,TRUE,2021-12-20T12:58:18Z,word,left,match,1,10.416666666666668
142,96,L,valid,534,telefono,right_match,69.89057859,2021-12-20T13:14:40Z,339258,TRUE,2021-12-20T12:58:18Z,word,right,match,1,10.416666666666668
20,245,L,valid,421,occhiali,right_mismatch,69.89057859,2021-12-20T13:14:40Z,339258,TRUE,2021-12-20T12:58:18Z,word,right,mismatch,1,13.194444444444445
22,254,L,valid,422,uva,right_mismatch,69.89057859,2021-12-20T13:14:40Z,339258,TRUE,2021-12-20T12:58:18Z,word,right,mismatch,1,13.194444444444445
35,165,A,valid,419,melone,left_mismatch,69.89057859,2021-12-20T13:14:40Z,339258,TRUE,2021-12-20T12:58:18Z,word,left,mismatch,1,13.194444444444445
38,167,A,valid,401,occhiali,left_mismatch,69.89057859,2021-12-20T13:14:40Z,339258,TRUE,2021-12-20T12:58:18Z,word,left,mismatch,1,13.194444444444445
39,243,L,valid,428,melone,right_mismatch,69.89057859,2021-12-20T13:14:40Z,339258,TRUE,2021-12-20T12:58:18Z,word,right,mismatch,1,13.194444444444445
51,251,L,valid,382,telecomando,right_mismatch,69.89057859,2021-12-20T13:14:40Z,339258,TRUE,2021-12-20T12:58:18Z,word,right,mismatch,1,13.194444444444445
59,250,L,valid,379,tartaruga,right_mismatch,69.89057859,2021-12-20T13:14:40Z,339258,TRUE,2021-12-20T12:58:18Z,word,right,mismatch,1,13.194444444444445
81,236,L,valid,522,bicchiere,right_mismatch,69.89057859,2021-12-20T13:14:40Z,339258,TRUE,2021-12-20T12:58:18Z,word,right,mismatch,1,13.194444444444445
88,166,A,valid,385,mucca,left_mismatch,69.89057859,2021-12-20T13:14:40Z,339258,TRUE,2021-12-20T12:58:18Z,word,left,mismatch,1,13.194444444444445
100,171,A,valid,685,rasoio,left_mismatch,69.89057859,2021-12-20T13:14:40Z,339258,TRUE,2021-12-20T12:58:18Z,word,left,mismatch,1,13.194444444444445
105,241,L,valid,540,frullatore,right_mismatch,69.89057859,2021-12-20T13:14:40Z,339258,TRUE,2021-12-20T12:58:18Z,word,right,mismatch,1,13.194444444444445
107,161,A,valid,402,chiave,left_mismatch,69.89057859,2021-12-20T13:14:40Z,339258,TRUE,2021-12-20T12:58:18Z,word,left,mismatch,1,13.194444444444445
116,244,L,valid,397,mucca,right_mismatch,69.89057859,2021-12-20T13:14:40Z,339258,TRUE,2021-12-20T12:58:18Z,word,right,mismatch,1,13.194444444444445
123,238,L,valid,426,cervo,right_mismatch,69.89057859,2021-12-20T13:14:40Z,339258,TRUE,2021-12-20T12:58:18Z,word,right,mismatch,1,13.194444444444445
130,235,L,valid,536,banana,right_mismatch,69.89057859,2021-12-20T13:14:40Z,339258,TRUE,2021-12-20T12:58:18Z,word,right,mismatch,1,13.194444444444445
135,242,L,valid,387,mandorla,right_mismatch,69.89057859,2021-12-20T13:14:40Z,339258,TRUE,2021-12-20T12:58:18Z,word,right,mismatch,1,13.194444444444445
136,246,L,valid,385,pinza,right_mismatch,69.89057859,2021-12-20T13:14:40Z,339258,TRUE,2021-12-20T12:58:18Z,word,right,mismatch,1,13.194444444444445
139,175,A,valid,399,termometro,left_mismatch,69.89057859,2021-12-20T13:14:40Z,339258,TRUE,2021-12-20T12:58:18Z,word,left,mismatch,1,13.194444444444445
143,172,A,valid,391,tartaruga,left_mismatch,69.89057859,2021-12-20T13:14:40Z,339258,TRUE,2021-12-20T12:58:18Z,word,left,mismatch,1,13.194444444444445
29,131,L,invalid,605,pomodoro,right_match,45.63906988,2021-12-20T13:16:44Z,339270,TRUE,2021-12-20T12:59:56Z,word,right,match,1,13.194444444444445
33,42,A,invalid,470,cane,left_match,45.63906988,2021-12-20T13:16:44Z,339270,TRUE,2021-12-20T12:59:56Z,word,left,match,1,13.194444444444445
36,43,A,invalid,455,cervo,left_match,45.63906988,2021-12-20T13:16:44Z,339270,TRUE,2021-12-20T12:59:56Z,word,left,match,1,13.194444444444445
55,128,L,invalid,444,occhiali,right_match,45.63906988,2021-12-20T13:16:44Z,339270,TRUE,2021-12-20T12:59:56Z,word,right,match,1,13.194444444444445
69,130,L,invalid,436,pistola,right_match,45.63906988,2021-12-20T13:16:44Z,339270,TRUE,2021-12-20T12:59:56Z,word,right,match,1,13.194444444444445
73,125,L,invalid,473,mandorla,right_match,45.63906988,2021-12-20T13:16:44Z,339270,TRUE,2021-12-20T12:59:56Z,word,right,match,1,13.194444444444445
75,46,A,invalid,432,frullatore,left_match,45.63906988,2021-12-20T13:16:44Z,339270,TRUE,2021-12-20T12:59:56Z,word,left,match,1,13.194444444444445
77,56,A,invalid,333,telecomando,left_match,45.63906988,2021-12-20T13:16:44Z,339270,TRUE,2021-12-20T12:59:56Z,word,left,match,1,13.194444444444445
83,120,L,invalid,434,cane,right_match,45.63906988,2021-12-20T13:16:44Z,339270,TRUE,2021-12-20T12:59:56Z,word,right,match,1,13.194444444444445
85,55,A,invalid,352,tartaruga,left_match,45.63906988,2021-12-20T13:16:44Z,339270,TRUE,2021-12-20T12:59:56Z,word,left,match,1,13.194444444444445
91,57,A,invalid,452,telefono,left_match,45.63906988,2021-12-20T13:16:44Z,339270,TRUE,2021-12-20T12:59:56Z,word,left,match,1,13.194444444444445
110,123,L,invalid,425,coniglio,right_match,45.63906988,2021-12-20T13:16:44Z,339270,TRUE,2021-12-20T12:59:56Z,word,right,match,1,13.194444444444445
112,121,L,invalid,356,cervo,right_match,45.63906988,2021-12-20T13:16:44Z,339270,TRUE,2021-12-20T12:59:56Z,word,right,match,1,13.194444444444445
113,44,A,invalid,553,chiave,left_match,45.63906988,2021-12-20T13:16:44Z,339270,TRUE,2021-12-20T12:59:56Z,word,left,match,1,13.194444444444445
121,134,L,invalid,389,telecomando,right_match,45.63906988,2021-12-20T13:16:44Z,339270,TRUE,2021-12-20T12:59:56Z,word,right,match,1,13.194444444444445
138,118,L,invalid,315,banana,right_match,45.63906988,2021-12-20T13:16:44Z,339270,TRUE,2021-12-20T12:59:56Z,word,right,match,1,13.194444444444445
140,132,L,invalid,405,rasoio,right_match,45.63906988,2021-12-20T13:16:44Z,339270,TRUE,2021-12-20T12:59:56Z,word,right,match,1,13.194444444444445
141,48,A,invalid,339,melone,left_match,45.63906988,2021-12-20T13:16:44Z,339270,TRUE,2021-12-20T12:59:56Z,word,left,match,1,13.194444444444445
143,51,A,invalid,341,pinza,left_match,45.63906988,2021-12-20T13:16:44Z,339270,TRUE,2021-12-20T12:59:56Z,word,left,match,1,13.194444444444445
15,201,A,invalid,436,coniglio,left_mismatch,45.63906988,2021-12-20T13:16:44Z,339270,TRUE,2021-12-20T12:59:56Z,word,left,mismatch,1,11.11111111111111
16,206,A,invalid,431,occhiali,left_mismatch,45.63906988,2021-12-20T13:16:44Z,339270,TRUE,2021-12-20T12:59:56Z,word,left,mismatch,1,11.11111111111111
30,204,A,invalid,338,melone,left_mismatch,45.63906988,2021-12-20T13:16:44Z,339270,TRUE,2021-12-20T12:59:56Z,word,left,mismatch,1,11.11111111111111
41,290,L,invalid,325,telecomando,right_mismatch,45.63906988,2021-12-20T13:16:44Z,339270,TRUE,2021-12-20T12:59:56Z,word,right,mismatch,1,11.11111111111111
56,289,L,invalid,435,tartaruga,right_mismatch,45.63906988,2021-12-20T13:16:44Z,339270,TRUE,2021-12-20T12:59:56Z,word,right,mismatch,1,11.11111111111111
57,275,L,invalid,437,bicchiere,right_mismatch,45.63906988,2021-12-20T13:16:44Z,339270,TRUE,2021-12-20T12:59:56Z,word,right,mismatch,1,11.11111111111111
62,207,A,invalid,362,pinza,left_mismatch,45.63906988,2021-12-20T13:16:44Z,339270,TRUE,2021-12-20T12:59:56Z,word,left,mismatch,1,11.11111111111111
68,203,A,invalid,449,mandorla,left_mismatch,45.63906988,2021-12-20T13:16:44Z,339270,TRUE,2021-12-20T12:59:56Z,word,left,mismatch,1,11.11111111111111
86,281,L,invalid,306,mandorla,right_mismatch,45.63906988,2021-12-20T13:16:44Z,339270,TRUE,2021-12-20T12:59:56Z,word,right,mismatch,1,11.11111111111111
89,284,L,invalid,422,occhiali,right_mismatch,45.63906988,2021-12-20T13:16:44Z,339270,TRUE,2021-12-20T12:59:56Z,word,right,mismatch,1,11.11111111111111
98,208,A,invalid,389,pistola,left_mismatch,45.63906988,2021-12-20T13:16:44Z,339270,TRUE,2021-12-20T12:59:56Z,word,left,mismatch,1,11.11111111111111
117,278,L,invalid,415,chiave,right_mismatch,45.63906988,2021-12-20T13:16:44Z,339270,TRUE,2021-12-20T12:59:56Z,word,right,mismatch,1,11.11111111111111
125,287,L,invalid,478,pomodoro,right_mismatch,45.63906988,2021-12-20T13:16:44Z,339270,TRUE,2021-12-20T12:59:56Z,word,right,mismatch,1,11.11111111111111
132,286,L,invalid,388,pistola,right_mismatch,45.63906988,2021-12-20T13:16:44Z,339270,TRUE,2021-12-20T12:59:56Z,word,right,mismatch,1,11.11111111111111
134,277,L,invalid,457,cervo,right_mismatch,45.63906988,2021-12-20T13:16:44Z,339270,TRUE,2021-12-20T12:59:56Z,word,right,mismatch,1,11.11111111111111
142,292,L,invalid,336,termometro,right_mismatch,45.63906988,2021-12-20T13:16:44Z,339270,TRUE,2021-12-20T12:59:56Z,word,right,mismatch,1,11.11111111111111
2,98,L,valid,422,uva,right_match,45.63906988,2021-12-20T13:16:44Z,339270,TRUE,2021-12-20T12:59:56Z,word,right,match,1,9.722222222222223
24,20,A,valid,434,uva,left_match,45.63906988,2021-12-20T13:16:44Z,339270,TRUE,2021-12-20T12:59:56Z,word,left,match,1,9.722222222222223
38,19,A,valid,436,termometro,left_match,45.63906988,2021-12-20T13:16:44Z,339270,TRUE,2021-12-20T12:59:56Z,word,left,match,1,9.722222222222223
42,17,A,valid,620,telecomando,left_match,45.63906988,2021-12-20T13:16:44Z,339270,TRUE,2021-12-20T12:59:56Z,word,left,match,1,9.722222222222223
45,2,A,valid,430,bicchiere,left_match,45.63906988,2021-12-20T13:16:44Z,339270,TRUE,2021-12-20T12:59:56Z,word,left,match,1,9.722222222222223
