Trial_Nr,Trial_Id,answer,cue,reaction_time,target,target_pos_match,XGazeError,End_Time,Exp_Subject_Id,Is_Fullscreen,Start_Time,label,target_pos,target_match,accuracy,error
NA,NA,NA,NA,NA,NA,NA,NA,NA,NA,NA,NA,NA,NA,NA,NA,NA
NA,NA,NA,NA,NA,NA,NA,NA,NA,NA,NA,NA,NA,NA,NA,NA,NA
NA,NA,NA,NA,NA,NA,NA,NA,NA,NA,NA,NA,NA,NA,NA,NA,NA
1,147,L,invalid,676,2034,right_match,27.16512468,2021-12-20T13:03:17.000Z,339184,TRUE,2021-12-20T12:46:13.000Z,non-word,right,match,1,9.722222222222223
30,149,L,invalid,618,2037,right_match,27.16512468,2021-12-20T13:03:17.000Z,339184,TRUE,2021-12-20T12:46:13.000Z,non-word,right,match,1,9.722222222222223
33,74,A,invalid,501,2044,left_match,27.16512468,2021-12-20T13:03:17.000Z,339184,TRUE,2021-12-20T12:46:13.000Z,non-word,left,match,1,9.722222222222223
34,62,A,invalid,437,2013,left_match,27.16512468,2021-12-20T13:03:17.000Z,339184,TRUE,2021-12-20T12:46:13.000Z,non-word,left,match,1,9.722222222222223
56,148,L,invalid,452,2036,right_match,27.16512468,2021-12-20T13:03:17.000Z,339184,TRUE,2021-12-20T12:46:13.000Z,non-word,right,match,1,9.722222222222223
73,78,A,invalid,923,2059,left_match,27.16512468,2021-12-20T13:03:17.000Z,339184,TRUE,2021-12-20T12:46:13.000Z,non-word,left,match,1,9.722222222222223
80,70,A,invalid,935,2036,left_match,27.16512468,2021-12-20T13:03:17.000Z,339184,TRUE,2021-12-20T12:46:13.000Z,non-word,left,match,1,9.722222222222223
87,61,A,invalid,600,2010,left_match,27.16512468,2021-12-20T13:03:17.000Z,339184,TRUE,2021-12-20T12:46:13.000Z,non-word,left,match,1,9.722222222222223
97,143,A,invalid,273,2023,right_match,27.16512468,2021-12-20T13:03:17.000Z,339184,TRUE,2021-12-20T12:46:13.000Z,non-word,right,match,0,9.722222222222223
109,152,L,invalid,488,2044,right_match,27.16512468,2021-12-20T13:03:17.000Z,339184,TRUE,2021-12-20T12:46:13.000Z,non-word,right,match,1,9.722222222222223
111,69,A,invalid,554,2034,left_match,27.16512468,2021-12-20T13:03:17.000Z,339184,TRUE,2021-12-20T12:46:13.000Z,non-word,left,match,1,9.722222222222223
112,139,L,invalid,618,2010,right_match,27.16512468,2021-12-20T13:03:17.000Z,339184,TRUE,2021-12-20T12:46:13.000Z,non-word,right,match,1,9.722222222222223
115,142,L,invalid,454,2019,right_match,27.16512468,2021-12-20T13:03:17.000Z,339184,TRUE,2021-12-20T12:46:13.000Z,non-word,right,match,1,9.722222222222223
124,75,A,invalid,650,2049,left_match,27.16512468,2021-12-20T13:03:17.000Z,339184,TRUE,2021-12-20T12:46:13.000Z,non-word,left,match,1,9.722222222222223
144,71,A,invalid,640,2037,left_match,27.16512468,2021-12-20T13:03:17.000Z,339184,TRUE,2021-12-20T12:46:13.000Z,non-word,left,match,1,9.722222222222223
6,128,L,invalid,700,occhiali,right_match,27.16512468,2021-12-20T13:03:17.000Z,339184,TRUE,2021-12-20T12:46:13.000Z,word,right,match,1,13.194444444444445
15,118,L,invalid,499,banana,right_match,27.16512468,2021-12-20T13:03:17.000Z,339184,TRUE,2021-12-20T12:46:13.000Z,word,right,match,1,13.194444444444445
20,49,A,invalid,342,mucca,left_match,27.16512468,2021-12-20T13:03:17.000Z,339184,TRUE,2021-12-20T12:46:13.000Z,word,left,match,1,13.194444444444445
21,120,A,invalid,328,cane,right_match,27.16512468,2021-12-20T13:03:17.000Z,339184,TRUE,2021-12-20T12:46:13.000Z,word,right,match,0,13.194444444444445
36,124,L,invalid,546,frullatore,right_match,27.16512468,2021-12-20T13:03:17.000Z,339184,TRUE,2021-12-20T12:46:13.000Z,word,right,match,1,13.194444444444445
38,40,A,invalid,463,banana,left_match,27.16512468,2021-12-20T13:03:17.000Z,339184,TRUE,2021-12-20T12:46:13.000Z,word,left,match,1,13.194444444444445
39,52,A,invalid,551,pistola,left_match,27.16512468,2021-12-20T13:03:17.000Z,339184,TRUE,2021-12-20T12:46:13.000Z,word,left,match,1,13.194444444444445
40,137,L,invalid,503,uva,right_match,27.16512468,2021-12-20T13:03:17.000Z,339184,TRUE,2021-12-20T12:46:13.000Z,word,right,match,1,13.194444444444445
45,41,A,invalid,590,bicchiere,left_match,27.16512468,2021-12-20T13:03:17.000Z,339184,TRUE,2021-12-20T12:46:13.000Z,word,left,match,1,13.194444444444445
63,135,L,invalid,516,telefono,right_match,27.16512468,2021-12-20T13:03:17.000Z,339184,TRUE,2021-12-20T12:46:13.000Z,word,right,match,1,13.194444444444445
69,123,L,invalid,542,coniglio,right_match,27.16512468,2021-12-20T13:03:17.000Z,339184,TRUE,2021-12-20T12:46:13.000Z,word,right,match,1,13.194444444444445
78,131,L,invalid,720,pomodoro,right_match,27.16512468,2021-12-20T13:03:17.000Z,339184,TRUE,2021-12-20T12:46:13.000Z,word,right,match,1,13.194444444444445
88,122,L,invalid,483,chiave,right_match,27.16512468,2021-12-20T13:03:17.000Z,339184,TRUE,2021-12-20T12:46:13.000Z,word,right,match,1,13.194444444444445
100,59,A,invalid,491,uva,left_match,27.16512468,2021-12-20T13:03:17.000Z,339184,TRUE,2021-12-20T12:46:13.000Z,word,left,match,1,13.194444444444445
105,126,L,invalid,486,melone,right_match,27.16512468,2021-12-20T13:03:17.000Z,339184,TRUE,2021-12-20T12:46:13.000Z,word,right,match,1,13.194444444444445
120,125,L,invalid,482,mandorla,right_match,27.16512468,2021-12-20T13:03:17.000Z,339184,TRUE,2021-12-20T12:46:13.000Z,word,right,match,1,13.194444444444445
125,42,A,invalid,638,cane,left_match,27.16512468,2021-12-20T13:03:17.000Z,339184,TRUE,2021-12-20T12:46:13.000Z,word,left,match,1,13.194444444444445
126,136,L,invalid,533,termometro,right_match,27.16512468,2021-12-20T13:03:17.000Z,339184,TRUE,2021-12-20T12:46:13.000Z,word,right,match,1,13.194444444444445
137,57,A,invalid,385,telefono,left_match,27.16512468,2021-12-20T13:03:17.000Z,339184,TRUE,2021-12-20T12:46:13.000Z,word,left,match,1,13.194444444444445
140,47,A,invalid,468,mandorla,left_match,27.16512468,2021-12-20T13:03:17.000Z,339184,TRUE,2021-12-20T12:46:13.000Z,word,left,match,1,13.194444444444445
17,216,A,invalid,468,2006,left_mismatch,27.16512468,2021-12-20T13:03:17.000Z,339184,TRUE,2021-12-20T12:46:13.000Z,non-word,left,mismatch,1,11.805555555555555
18,298,L,invalid,490,2019,right_mismatch,27.16512468,2021-12-20T13:03:17.000Z,339184,TRUE,2021-12-20T12:46:13.000Z,non-word,right,mismatch,1,11.805555555555555
19,302,L,invalid,617,2030,right_mismatch,27.16512468,2021-12-20T13:03:17.000Z,339184,TRUE,2021-12-20T12:46:13.000Z,non-word,right,mismatch,1,11.805555555555555
29,219,A,invalid,431,2017,left_mismatch,27.16512468,2021-12-20T13:03:17.000Z,339184,TRUE,2021-12-20T12:46:13.000Z,non-word,left,mismatch,1,11.805555555555555
32,233,A,invalid,441,2058,left_mismatch,27.16512468,2021-12-20T13:03:17.000Z,339184,TRUE,2021-12-20T12:46:13.000Z,non-word,left,mismatch,1,11.805555555555555
42,225,A,invalid,504,2034,left_mismatch,27.16512468,2021-12-20T13:03:17.000Z,339184,TRUE,2021-12-20T12:46:13.000Z,non-word,left,mismatch,1,11.805555555555555
52,299,L,invalid,585,2023,right_mismatch,27.16512468,2021-12-20T13:03:17.000Z,339184,TRUE,2021-12-20T12:46:13.000Z,non-word,right,mismatch,1,11.805555555555555
54,223,A,invalid,663,2026,left_mismatch,27.16512468,2021-12-20T13:03:17.000Z,339184,TRUE,2021-12-20T12:46:13.000Z,non-word,left,mismatch,1,11.805555555555555
71,305,L,invalid,706,2037,right_mismatch,27.16512468,2021-12-20T13:03:17.000Z,339184,TRUE,2021-12-20T12:46:13.000Z,non-word,right,mismatch,1,11.805555555555555
75,224,A,invalid,741,2030,left_mismatch,27.16512468,2021-12-20T13:03:17.000Z,339184,TRUE,2021-12-20T12:46:13.000Z,non-word,left,mismatch,1,11.805555555555555
77,312,L,invalid,831,2059,right_mismatch,27.16512468,2021-12-20T13:03:17.000Z,339184,TRUE,2021-12-20T12:46:13.000Z,non-word,right,mismatch,1,11.805555555555555
94,300,L,invalid,545,2024,right_mismatch,27.16512468,2021-12-20T13:03:17.000Z,339184,TRUE,2021-12-20T12:46:13.000Z,non-word,right,mismatch,1,11.805555555555555
98,234,A,invalid,604,2059,left_mismatch,27.16512468,2021-12-20T13:03:17.000Z,339184,TRUE,2021-12-20T12:46:13.000Z,non-word,left,mismatch,1,11.805555555555555
106,296,L,invalid,591,2013,right_mismatch,27.16512468,2021-12-20T13:03:17.000Z,339184,TRUE,2021-12-20T12:46:13.000Z,non-word,right,mismatch,1,11.805555555555555
117,303,L,invalid,451,2034,right_mismatch,27.16512468,2021-12-20T13:03:17.000Z,339184,TRUE,2021-12-20T12:46:13.000Z,non-word,right,mismatch,1,11.805555555555555
130,232,A,invalid,605,2052,left_mismatch,27.16512468,2021-12-20T13:03:17.000Z,339184,TRUE,2021-12-20T12:46:13.000Z,non-word,left,mismatch,1,11.805555555555555
133,231,A,invalid,497,2049,left_mismatch,27.16512468,2021-12-20T13:03:17.000Z,339184,TRUE,2021-12-20T12:46:13.000Z,non-word,left,mismatch,1,11.805555555555555
139,227,L,invalid,331,2037,left_mismatch,27.16512468,2021-12-20T13:03:17.000Z,339184,TRUE,2021-12-20T12:46:13.000Z,non-word,left,mismatch,0,11.805555555555555
8,202,A,invalid,638,frullatore,left_mismatch,27.16512468,2021-12-20T13:03:17.000Z,339184,TRUE,2021-12-20T12:46:13.000Z,word,left,mismatch,1,12.5
11,200,A,invalid,620,chiave,left_mismatch,27.16512468,2021-12-20T13:03:17.000Z,339184,TRUE,2021-12-20T12:46:13.000Z,word,left,mismatch,1,12.5
35,208,A,invalid,559,pistola,left_mismatch,27.16512468,2021-12-20T13:03:17.000Z,339184,TRUE,2021-12-20T12:46:13.000Z,word,left,mismatch,1,12.5
43,209,A,invalid,458,pomodoro,left_mismatch,27.16512468,2021-12-20T13:03:17.000Z,339184,TRUE,2021-12-20T12:46:13.000Z,word,left,mismatch,1,12.5
49,289,L,invalid,425,tartaruga,right_mismatch,27.16512468,2021-12-20T13:03:17.000Z,339184,TRUE,2021-12-20T12:46:13.000Z,word,right,mismatch,1,12.5
59,274,L,invalid,470,banana,right_mismatch,27.16512468,2021-12-20T13:03:17.000Z,339184,TRUE,2021-12-20T12:46:13.000Z,word,right,mismatch,1,12.5
60,212,A,invalid,506,telecomando,left_mismatch,27.16512468,2021-12-20T13:03:17.000Z,339184,TRUE,2021-12-20T12:46:13.000Z,word,left,mismatch,1,12.5
62,204,A,invalid,612,melone,left_mismatch,27.16512468,2021-12-20T13:03:17.000Z,339184,TRUE,2021-12-20T12:46:13.000Z,word,left,mismatch,1,12.5
64,210,A,invalid,454,rasoio,left_mismatch,27.16512468,2021-12-20T13:03:17.000Z,339184,TRUE,2021-12-20T12:46:13.000Z,word,left,mismatch,1,12.5
68,215,A,invalid,370,uva,left_mismatch,27.16512468,2021-12-20T13:03:17.000Z,339184,TRUE,2021-12-20T12:46:13.000Z,word,left,mismatch,1,12.5
82,277,L,invalid,604,cervo,right_mismatch,27.16512468,2021-12-20T13:03:17.000Z,339184,TRUE,2021-12-20T12:46:13.000Z,word,right,mismatch,1,12.5
102,207,A,invalid,412,pinza,left_mismatch,27.16512468,2021-12-20T13:03:17.000Z,339184,TRUE,2021-12-20T12:46:13.000Z,word,left,mismatch,1,12.5
103,214,A,invalid,565,termometro,left_mismatch,27.16512468,2021-12-20T13:03:17.000Z,339184,TRUE,2021-12-20T12:46:13.000Z,word,left,mismatch,1,12.5
123,213,A,invalid,623,telefono,left_mismatch,27.16512468,2021-12-20T13:03:17.000Z,339184,TRUE,2021-12-20T12:46:13.000Z,word,left,mismatch,1,12.5
127,285,L,invalid,495,pinza,right_mismatch,27.16512468,2021-12-20T13:03:17.000Z,339184,TRUE,2021-12-20T12:46:13.000Z,word,right,mismatch,1,12.5
128,279,L,invalid,487,coniglio,right_mismatch,27.16512468,2021-12-20T13:03:17.000Z,339184,TRUE,2021-12-20T12:46:13.000Z,word,right,mismatch,1,12.5
129,282,L,invalid,505,melone,right_mismatch,27.16512468,2021-12-20T13:03:17.000Z,339184,TRUE,2021-12-20T12:46:13.000Z,word,right,mismatch,1,12.5
132,197,A,invalid,508,bicchiere,left_mismatch,27.16512468,2021-12-20T13:03:17.000Z,339184,TRUE,2021-12-20T12:46:13.000Z,word,left,mismatch,1,12.5
3,29,A,valid,606,2030,left_match,27.16512468,2021-12-20T13:03:17.000Z,339184,TRUE,2021-12-20T12:46:13.000Z,non-word,left,match,1,12.5
5,37,A,valid,591,2052,left_match,27.16512468,2021-12-20T13:03:17.000Z,339184,TRUE,2021-12-20T12:46:13.000Z,non-word,left,match,1,12.5
10,102,L,valid,501,2017,right_match,27.16512468,2021-12-20T13:03:17.000Z,339184,TRUE,2021-12-20T12:46:13.000Z,non-word,right,match,1,12.5
12,104,L,valid,517,2023,right_match,27.16512468,2021-12-20T13:03:17.000Z,339184,TRUE,2021-12-20T12:46:13.000Z,non-word,right,match,1,12.5
27,33,A,valid,466,2039,left_match,27.16512468,2021-12-20T13:03:17.000Z,339184,TRUE,2021-12-20T12:46:13.000Z,non-word,left,match,1,12.5
28,105,L,valid,471,2024,right_match,27.16512468,2021-12-20T13:03:17.000Z,339184,TRUE,2021-12-20T12:46:13.000Z,non-word,right,match,1,12.5
50,31,A,valid,534,2036,left_match,27.16512468,2021-12-20T13:03:17.000Z,339184,TRUE,2021-12-20T12:46:13.000Z,non-word,left,match,1,12.5
53,113,L,valid,486,2044,right_match,27.16512468,2021-12-20T13:03:17.000Z,339184,TRUE,2021-12-20T12:46:13.000Z,non-word,right,match,1,12.5
72,107,L,valid,947,2030,right_match,27.16512468,2021-12-20T13:03:17.000Z,339184,TRUE,2021-12-20T12:46:13.000Z,non-word,right,match,1,12.5
74,109,L,valid,567,2036,right_match,27.16512468,2021-12-20T13:03:17.000Z,339184,TRUE,2021-12-20T12:46:13.000Z,non-word,right,match,1,12.5
79,32,A,valid,647,2037,left_match,27.16512468,2021-12-20T13:03:17.000Z,339184,TRUE,2021-12-20T12:46:13.000Z,non-word,left,match,1,12.5
83,111,L,valid,627,2039,right_match,27.16512468,2021-12-20T13:03:17.000Z,339184,TRUE,2021-12-20T12:46:13.000Z,non-word,right,match,1,12.5
84,117,L,valid,680,2059,right_match,27.16512468,2021-12-20T13:03:17.000Z,339184,TRUE,2021-12-20T12:46:13.000Z,non-word,right,match,1,12.5
92,35,A,valid,486,2044,left_match,27.16512468,2021-12-20T13:03:17.000Z,339184,TRUE,2021-12-20T12:46:13.000Z,non-word,left,match,1,12.5
107,27,A,valid,360,2024,left_match,27.16512468,2021-12-20T13:03:17.000Z,339184,TRUE,2021-12-20T12:46:13.000Z,non-word,left,match,1,12.5
113,38,A,valid,484,2058,left_match,27.16512468,2021-12-20T13:03:17.000Z,339184,TRUE,2021-12-20T12:46:13.000Z,non-word,left,match,1,12.5
122,36,A,valid,761,2049,left_match,27.16512468,2021-12-20T13:03:17.000Z,339184,TRUE,2021-12-20T12:46:13.000Z,non-word,left,match,1,12.5
141,99,L,valid,597,2006,right_match,27.16512468,2021-12-20T13:03:17.000Z,339184,TRUE,2021-12-20T12:46:13.000Z,non-word,right,match,1,12.5
14,79,L,valid,412,banana,right_match,27.16512468,2021-12-20T13:03:17.000Z,339184,TRUE,2021-12-20T12:46:13.000Z,word,right,match,1,11.11111111111111
16,10,A,valid,492,mucca,left_match,27.16512468,2021-12-20T13:03:17.000Z,339184,TRUE,2021-12-20T12:46:13.000Z,word,left,match,1,11.11111111111111
37,93,L,valid,469,rasoio,right_match,27.16512468,2021-12-20T13:03:17.000Z,339184,TRUE,2021-12-20T12:46:13.000Z,word,right,match,1,11.11111111111111
44,81,L,valid,474,cane,right_match,27.16512468,2021-12-20T13:03:17.000Z,339184,TRUE,2021-12-20T12:46:13.000Z,word,right,match,1,11.11111111111111
55,7,A,valid,464,frullatore,left_match,27.16512468,2021-12-20T13:03:17.000Z,339184,TRUE,2021-12-20T12:46:13.000Z,word,left,match,1,11.11111111111111
61,9,A,valid,590,melone,left_match,27.16512468,2021-12-20T13:03:17.000Z,339184,TRUE,2021-12-20T12:46:13.000Z,word,left,match,1,11.11111111111111
66,98,L,valid,546,uva,right_match,27.16512468,2021-12-20T13:03:17.000Z,339184,TRUE,2021-12-20T12:46:13.000Z,word,right,match,1,11.11111111111111
89,82,L,valid,436,cervo,right_match,27.16512468,2021-12-20T13:03:17.000Z,339184,TRUE,2021-12-20T12:46:13.000Z,word,right,match,1,11.11111111111111
91,95,L,valid,496,telecomando,right_match,27.16512468,2021-12-20T13:03:17.000Z,339184,TRUE,2021-12-20T12:46:13.000Z,word,right,match,1,11.11111111111111
93,14,A,valid,490,pomodoro,left_match,27.16512468,2021-12-20T13:03:17.000Z,339184,TRUE,2021-12-20T12:46:13.000Z,word,left,match,1,11.11111111111111
96,96,L,valid,443,telefono,right_match,27.16512468,2021-12-20T13:03:17.000Z,339184,TRUE,2021-12-20T12:46:13.000Z,word,right,match,1,11.11111111111111
104,18,A,valid,509,telefono,left_match,27.16512468,2021-12-20T13:03:17.000Z,339184,TRUE,2021-12-20T12:46:13.000Z,word,left,match,1,11.11111111111111
110,91,L,valid,507,pistola,right_match,27.16512468,2021-12-20T13:03:17.000Z,339184,TRUE,2021-12-20T12:46:13.000Z,word,right,match,1,11.11111111111111
134,92,L,valid,439,pomodoro,right_match,27.16512468,2021-12-20T13:03:17.000Z,339184,TRUE,2021-12-20T12:46:13.000Z,word,right,match,1,11.11111111111111
136,88,L,valid,467,mucca,right_match,27.16512468,2021-12-20T13:03:17.000Z,339184,TRUE,2021-12-20T12:46:13.000Z,word,right,match,1,11.11111111111111
143,97,L,valid,539,termometro,right_match,27.16512468,2021-12-20T13:03:17.000Z,339184,TRUE,2021-12-20T12:46:13.000Z,word,right,match,1,11.11111111111111
2,181,A,valid,531,2019,left_mismatch,27.16512468,2021-12-20T13:03:17.000Z,339184,TRUE,2021-12-20T12:46:13.000Z,non-word,left,mismatch,1,13.194444444444445
4,268,L,valid,494,2040,right_mismatch,27.16512468,2021-12-20T13:03:17.000Z,339184,TRUE,2021-12-20T12:46:13.000Z,non-word,right,mismatch,1,13.194444444444445
7,267,L,valid,636,2039,right_mismatch,27.16512468,2021-12-20T13:03:17.000Z,339184,TRUE,2021-12-20T12:46:13.000Z,non-word,right,mismatch,1,13.194444444444445
23,260,L,valid,522,2023,right_mismatch,27.16512468,2021-12-20T13:03:17.000Z,339184,TRUE,2021-12-20T12:46:13.000Z,non-word,right,mismatch,1,13.194444444444445
26,190,A,valid,504,2040,left_mismatch,27.16512468,2021-12-20T13:03:17.000Z,339184,TRUE,2021-12-20T12:46:13.000Z,non-word,left,mismatch,1,13.194444444444445
31,263,L,valid,493,2030,right_mismatch,27.16512468,2021-12-20T13:03:17.000Z,339184,TRUE,2021-12-20T12:46:13.000Z,non-word,right,mismatch,1,13.194444444444445
41,186,A,valid,463,2034,left_mismatch,27.16512468,2021-12-20T13:03:17.000Z,339184,TRUE,2021-12-20T12:46:13.000Z,non-word,left,mismatch,1,13.194444444444445
46,177,A,valid,472,2006,left_mismatch,27.16512468,2021-12-20T13:03:17.000Z,339184,TRUE,2021-12-20T12:46:13.000Z,non-word,left,mismatch,1,13.194444444444445
67,264,L,valid,612,2034,right_mismatch,27.16512468,2021-12-20T13:03:17.000Z,339184,TRUE,2021-12-20T12:46:13.000Z,non-word,right,mismatch,1,13.194444444444445
70,255,L,valid,460,2006,right_mismatch,27.16512468,2021-12-20T13:03:17.000Z,339184,TRUE,2021-12-20T12:46:13.000Z,non-word,right,mismatch,1,13.194444444444445
81,272,L,valid,613,2058,right_mismatch,27.16512468,2021-12-20T13:03:17.000Z,339184,TRUE,2021-12-20T12:46:13.000Z,non-word,right,mismatch,1,13.194444444444445
86,182,A,valid,646,2023,left_mismatch,27.16512468,2021-12-20T13:03:17.000Z,339184,TRUE,2021-12-20T12:46:13.000Z,non-word,left,mismatch,1,13.194444444444445
95,261,L,valid,570,2024,right_mismatch,27.16512468,2021-12-20T13:03:17.000Z,339184,TRUE,2021-12-20T12:46:13.000Z,non-word,right,mismatch,1,13.194444444444445
99,193,A,valid,589,2052,left_mismatch,27.16512468,2021-12-20T13:03:17.000Z,339184,TRUE,2021-12-20T12:46:13.000Z,non-word,left,mismatch,1,13.194444444444445
118,179,A,valid,490,2013,left_mismatch,27.16512468,2021-12-20T13:03:17.000Z,339184,TRUE,2021-12-20T12:46:13.000Z,non-word,left,mismatch,1,13.194444444444445
119,194,A,valid,294,2058,left_mismatch,27.16512468,2021-12-20T13:03:17.000Z,339184,TRUE,2021-12-20T12:46:13.000Z,non-word,left,mismatch,1,13.194444444444445
131,188,A,valid,509,2037,left_mismatch,27.16512468,2021-12-20T13:03:17.000Z,339184,TRUE,2021-12-20T12:46:13.000Z,non-word,left,mismatch,1,13.194444444444445
138,256,L,valid,522,2010,right_mismatch,27.16512468,2021-12-20T13:03:17.000Z,339184,TRUE,2021-12-20T12:46:13.000Z,non-word,right,mismatch,1,13.194444444444445
142,258,L,valid,567,2017,right_mismatch,27.16512468,2021-12-20T13:03:17.000Z,339184,TRUE,2021-12-20T12:46:13.000Z,non-word,right,mismatch,1,13.194444444444445
9,163,A,valid,468,frullatore,left_mismatch,27.16512468,2021-12-20T13:03:17.000Z,339184,TRUE,2021-12-20T12:46:13.000Z,word,left,mismatch,1,13.194444444444445
13,243,L,valid,466,melone,right_mismatch,27.16512468,2021-12-20T13:03:17.000Z,339184,TRUE,2021-12-20T12:46:13.000Z,word,right,mismatch,1,13.194444444444445
22,171,A,valid,521,rasoio,left_mismatch,27.16512468,2021-12-20T13:03:17.000Z,339184,TRUE,2021-12-20T12:46:13.000Z,word,left,mismatch,1,13.194444444444445
24,168,A,valid,464,pinza,left_mismatch,27.16512468,2021-12-20T13:03:17.000Z,339184,TRUE,2021-12-20T12:46:13.000Z,word,left,mismatch,1,13.194444444444445
25,245,L,valid,513,occhiali,right_mismatch,27.16512468,2021-12-20T13:03:17.000Z,339184,TRUE,2021-12-20T12:46:13.000Z,word,right,mismatch,1,13.194444444444445
47,239,L,valid,486,chiave,right_mismatch,27.16512468,2021-12-20T13:03:17.000Z,339184,TRUE,2021-12-20T12:46:13.000Z,word,right,mismatch,1,13.194444444444445
48,172,A,valid,470,tartaruga,left_mismatch,27.16512468,2021-12-20T13:03:17.000Z,339184,TRUE,2021-12-20T12:46:13.000Z,word,left,mismatch,1,13.194444444444445
51,162,A,valid,471,coniglio,left_mismatch,27.16512468,2021-12-20T13:03:17.000Z,339184,TRUE,2021-12-20T12:46:13.000Z,word,left,mismatch,1,13.194444444444445
57,159,A,valid,508,cane,left_mismatch,27.16512468,2021-12-20T13:03:17.000Z,339184,TRUE,2021-12-20T12:46:13.000Z,word,left,mismatch,1,13.194444444444445
58,157,A,valid,504,banana,left_mismatch,27.16512468,2021-12-20T13:03:17.000Z,339184,TRUE,2021-12-20T12:46:13.000Z,word,left,mismatch,1,13.194444444444445
65,240,L,valid,409,coniglio,right_mismatch,27.16512468,2021-12-20T13:03:17.000Z,339184,TRUE,2021-12-20T12:46:13.000Z,word,right,mismatch,1,13.194444444444445
76,241,L,valid,558,frullatore,right_mismatch,27.16512468,2021-12-20T13:03:17.000Z,339184,TRUE,2021-12-20T12:46:13.000Z,word,right,mismatch,1,13.194444444444445
90,174,A,valid,495,telefono,left_mismatch,27.16512468,2021-12-20T13:03:17.000Z,339184,TRUE,2021-12-20T12:46:13.000Z,word,left,mismatch,1,13.194444444444445
101,247,L,valid,456,pistola,right_mismatch,27.16512468,2021-12-20T13:03:17.000Z,339184,TRUE,2021-12-20T12:46:13.000Z,word,right,mismatch,1,13.194444444444445
108,244,L,valid,392,mucca,right_mismatch,27.16512468,2021-12-20T13:03:17.000Z,339184,TRUE,2021-12-20T12:46:13.000Z,word,right,mismatch,1,13.194444444444445
114,252,L,valid,632,telefono,right_mismatch,27.16512468,2021-12-20T13:03:17.000Z,339184,TRUE,2021-12-20T12:46:13.000Z,word,right,mismatch,1,13.194444444444445
116,236,L,valid,416,bicchiere,right_mismatch,27.16512468,2021-12-20T13:03:17.000Z,339184,TRUE,2021-12-20T12:46:13.000Z,word,right,mismatch,1,13.194444444444445
121,164,A,valid,483,mandorla,left_mismatch,27.16512468,2021-12-20T13:03:17.000Z,339184,TRUE,2021-12-20T12:46:13.000Z,word,left,mismatch,1,13.194444444444445
135,253,L,valid,471,termometro,right_mismatch,27.16512468,2021-12-20T13:03:17.000Z,339184,TRUE,2021-12-20T12:46:13.000Z,word,right,mismatch,1,13.194444444444445
NA,NA,NA,NA,NA,NA,NA,NA,NA,NA,NA,NA,NA,NA,NA,NA,NA
NA,NA,NA,NA,NA,NA,NA,NA,NA,NA,NA,NA,NA,NA,NA,NA,NA
NA,NA,NA,NA,NA,NA,NA,NA,NA,NA,NA,NA,NA,NA,NA,NA,NA
7,155,L,invalid,700,2058,right_match,53.20051056,2021-12-20T13:06:13.000Z,339186,TRUE,2021-12-20T12:46:40.000Z,non-word,right,match,1,11.805555555555555
8,61,A,invalid,517,2010,left_match,53.20051056,2021-12-20T13:06:13.000Z,339186,TRUE,2021-12-20T12:46:40.000Z,non-word,left,match,1,11.805555555555555
13,63,A,invalid,417,2017,left_match,53.20051056,2021-12-20T13:06:13.000Z,339186,TRUE,2021-12-20T12:46:40.000Z,non-word,left,match,1,11.805555555555555
17,71,A,invalid,334,2037,left_match,53.20051056,2021-12-20T13:06:13.000Z,339186,TRUE,2021-12-20T12:46:40.000Z,non-word,left,match,1,11.805555555555555
27,152,L,invalid,569,2044,right_match,53.20051056,2021-12-20T13:06:13.000Z,339186,TRUE,2021-12-20T12:46:40.000Z,non-word,right,match,1,11.805555555555555
33,146,L,invalid,425,2030,right_match,53.20051056,2021-12-20T13:06:13.000Z,339186,TRUE,2021-12-20T12:46:40.000Z,non-word,right,match,1,11.805555555555555
41,151,L,invalid,344,2040,right_match,53.20051056,2021-12-20T13:06:13.000Z,339186,TRUE,2021-12-20T12:46:40.000Z,non-word,right,match,1,11.805555555555555
49,75,A,invalid,446,2049,left_match,53.20051056,2021-12-20T13:06:13.000Z,339186,TRUE,2021-12-20T12:46:40.000Z,non-word,left,match,1,11.805555555555555
50,144,L,invalid,348,2024,right_match,53.20051056,2021-12-20T13:06:13.000Z,339186,TRUE,2021-12-20T12:46:40.000Z,non-word,right,match,1,11.805555555555555
62,65,A,invalid,433,2023,left_match,53.20051056,2021-12-20T13:06:13.000Z,339186,TRUE,2021-12-20T12:46:40.000Z,non-word,left,match,1,11.805555555555555
73,77,A,invalid,497,2058,left_match,53.20051056,2021-12-20T13:06:13.000Z,339186,TRUE,2021-12-20T12:46:40.000Z,non-word,left,match,1,11.805555555555555
88,147,L,invalid,417,2034,right_match,53.20051056,2021-12-20T13:06:13.000Z,339186,TRUE,2021-12-20T12:46:40.000Z,non-word,right,match,1,11.805555555555555
103,76,A,invalid,685,2052,left_match,53.20051056,2021-12-20T13:06:13.000Z,339186,TRUE,2021-12-20T12:46:40.000Z,non-word,left,match,1,11.805555555555555
106,153,L,invalid,417,2049,right_match,53.20051056,2021-12-20T13:06:13.000Z,339186,TRUE,2021-12-20T12:46:40.000Z,non-word,right,match,1,11.805555555555555
116,156,L,invalid,413,2059,right_match,53.20051056,2021-12-20T13:06:13.000Z,339186,TRUE,2021-12-20T12:46:40.000Z,non-word,right,match,1,11.805555555555555
125,143,L,invalid,339,2023,right_match,53.20051056,2021-12-20T13:06:13.000Z,339186,TRUE,2021-12-20T12:46:40.000Z,non-word,right,match,1,11.805555555555555
136,69,A,invalid,416,2034,left_match,53.20051056,2021-12-20T13:06:13.000Z,339186,TRUE,2021-12-20T12:46:40.000Z,non-word,left,match,1,11.805555555555555
23,137,L,invalid,343,uva,right_match,53.20051056,2021-12-20T13:06:13.000Z,339186,TRUE,2021-12-20T12:46:40.000Z,word,right,match,1,13.88888888888889
28,126,L,invalid,420,melone,right_match,53.20051056,2021-12-20T13:06:13.000Z,339186,TRUE,2021-12-20T12:46:40.000Z,word,right,match,1,13.88888888888889
30,55,A,invalid,439,tartaruga,left_match,53.20051056,2021-12-20T13:06:13.000Z,339186,TRUE,2021-12-20T12:46:40.000Z,word,left,match,1,13.88888888888889
36,45,A,invalid,351,coniglio,left_match,53.20051056,2021-12-20T13:06:13.000Z,339186,TRUE,2021-12-20T12:46:40.000Z,word,left,match,1,13.88888888888889
48,122,L,invalid,420,chiave,right_match,53.20051056,2021-12-20T13:06:13.000Z,339186,TRUE,2021-12-20T12:46:40.000Z,word,right,match,1,13.88888888888889
51,46,A,invalid,335,frullatore,left_match,53.20051056,2021-12-20T13:06:13.000Z,339186,TRUE,2021-12-20T12:46:40.000Z,word,left,match,1,13.88888888888889
75,51,A,invalid,581,pinza,left_match,53.20051056,2021-12-20T13:06:13.000Z,339186,TRUE,2021-12-20T12:46:40.000Z,word,left,match,1,13.88888888888889
85,136,L,invalid,478,termometro,right_match,53.20051056,2021-12-20T13:06:13.000Z,339186,TRUE,2021-12-20T12:46:40.000Z,word,right,match,1,13.88888888888889
92,127,L,invalid,500,mucca,right_match,53.20051056,2021-12-20T13:06:13.000Z,339186,TRUE,2021-12-20T12:46:40.000Z,word,right,match,1,13.88888888888889
96,125,L,invalid,497,mandorla,right_match,53.20051056,2021-12-20T13:06:13.000Z,339186,TRUE,2021-12-20T12:46:40.000Z,word,right,match,1,13.88888888888889
108,131,L,invalid,350,pomodoro,right_match,53.20051056,2021-12-20T13:06:13.000Z,339186,TRUE,2021-12-20T12:46:40.000Z,word,right,match,1,13.88888888888889
109,56,A,invalid,415,telecomando,left_match,53.20051056,2021-12-20T13:06:13.000Z,339186,TRUE,2021-12-20T12:46:40.000Z,word,left,match,1,13.88888888888889
118,59,A,invalid,422,uva,left_match,53.20051056,2021-12-20T13:06:13.000Z,339186,TRUE,2021-12-20T12:46:40.000Z,word,left,match,1,13.88888888888889
120,52,A,invalid,426,pistola,left_match,53.20051056,2021-12-20T13:06:13.000Z,339186,TRUE,2021-12-20T12:46:40.000Z,word,left,match,1,13.88888888888889
124,118,L,invalid,505,banana,right_match,53.20051056,2021-12-20T13:06:13.000Z,339186,TRUE,2021-12-20T12:46:40.000Z,word,right,match,1,13.88888888888889
133,44,A,invalid,449,chiave,left_match,53.20051056,2021-12-20T13:06:13.000Z,339186,TRUE,2021-12-20T12:46:40.000Z,word,left,match,1,13.88888888888889
135,54,A,invalid,364,rasoio,left_match,53.20051056,2021-12-20T13:06:13.000Z,339186,TRUE,2021-12-20T12:46:40.000Z,word,left,match,1,13.88888888888889
138,128,L,invalid,416,occhiali,right_match,53.20051056,2021-12-20T13:06:13.000Z,339186,TRUE,2021-12-20T12:46:40.000Z,word,right,match,1,13.88888888888889
141,50,A,invalid,434,occhiali,left_match,53.20051056,2021-12-20T13:06:13.000Z,339186,TRUE,2021-12-20T12:46:40.000Z,word,left,match,1,13.88888888888889
142,132,L,invalid,458,rasoio,right_match,53.20051056,2021-12-20T13:06:13.000Z,339186,TRUE,2021-12-20T12:46:40.000Z,word,right,match,1,13.88888888888889
14,305,L,invalid,434,2037,right_mismatch,53.20051056,2021-12-20T13:06:13.000Z,339186,TRUE,2021-12-20T12:46:40.000Z,non-word,right,mismatch,1,9.027777777777777
15,295,L,invalid,438,2010,right_mismatch,53.20051056,2021-12-20T13:06:13.000Z,339186,TRUE,2021-12-20T12:46:40.000Z,non-word,right,mismatch,1,9.027777777777777
37,294,L,invalid,416,2006,right_mismatch,53.20051056,2021-12-20T13:06:13.000Z,339186,TRUE,2021-12-20T12:46:40.000Z,non-word,right,mismatch,1,9.027777777777777
52,301,A,invalid,107,2026,right_mismatch,53.20051056,2021-12-20T13:06:13.000Z,339186,TRUE,2021-12-20T12:46:40.000Z,non-word,right,mismatch,0,9.027777777777777
53,221,A,invalid,584,2023,left_mismatch,53.20051056,2021-12-20T13:06:13.000Z,339186,TRUE,2021-12-20T12:46:40.000Z,non-word,left,mismatch,1,9.027777777777777
59,229,A,invalid,451,2040,left_mismatch,53.20051056,2021-12-20T13:06:13.000Z,339186,TRUE,2021-12-20T12:46:40.000Z,non-word,left,mismatch,1,9.027777777777777
76,224,A,invalid,578,2030,left_mismatch,53.20051056,2021-12-20T13:06:13.000Z,339186,TRUE,2021-12-20T12:46:40.000Z,non-word,left,mismatch,1,9.027777777777777
81,303,L,invalid,517,2034,right_mismatch,53.20051056,2021-12-20T13:06:13.000Z,339186,TRUE,2021-12-20T12:46:40.000Z,non-word,right,mismatch,1,9.027777777777777
82,216,A,invalid,501,2006,left_mismatch,53.20051056,2021-12-20T13:06:13.000Z,339186,TRUE,2021-12-20T12:46:40.000Z,non-word,left,mismatch,1,9.027777777777777
86,300,L,invalid,352,2024,right_mismatch,53.20051056,2021-12-20T13:06:13.000Z,339186,TRUE,2021-12-20T12:46:40.000Z,non-word,right,mismatch,1,9.027777777777777
99,230,A,invalid,396,2044,left_mismatch,53.20051056,2021-12-20T13:06:13.000Z,339186,TRUE,2021-12-20T12:46:40.000Z,non-word,left,mismatch,1,9.027777777777777
112,217,A,invalid,422,2010,left_mismatch,53.20051056,2021-12-20T13:06:13.000Z,339186,TRUE,2021-12-20T12:46:40.000Z,non-word,left,mismatch,1,9.027777777777777
122,222,A,invalid,371,2024,left_mismatch,53.20051056,2021-12-20T13:06:13.000Z,339186,TRUE,2021-12-20T12:46:40.000Z,non-word,left,mismatch,1,9.027777777777777
143,297,L,invalid,451,2017,right_mismatch,53.20051056,2021-12-20T13:06:13.000Z,339186,TRUE,2021-12-20T12:46:40.000Z,non-word,right,mismatch,1,9.027777777777777
18,215,A,invalid,348,uva,left_mismatch,53.20051056,2021-12-20T13:06:13.000Z,339186,TRUE,2021-12-20T12:46:40.000Z,word,left,mismatch,1,12.5
20,198,A,invalid,366,cane,left_mismatch,53.20051056,2021-12-20T13:06:13.000Z,339186,TRUE,2021-12-20T12:46:40.000Z,word,left,mismatch,1,12.5
26,282,L,invalid,429,melone,right_mismatch,53.20051056,2021-12-20T13:06:13.000Z,339186,TRUE,2021-12-20T12:46:40.000Z,word,right,mismatch,1,12.5
42,284,L,invalid,350,occhiali,right_mismatch,53.20051056,2021-12-20T13:06:13.000Z,339186,TRUE,2021-12-20T12:46:40.000Z,word,right,mismatch,1,12.5
45,277,L,invalid,499,cervo,right_mismatch,53.20051056,2021-12-20T13:06:13.000Z,339186,TRUE,2021-12-20T12:46:40.000Z,word,right,mismatch,1,12.5
56,208,A,invalid,357,pistola,left_mismatch,53.20051056,2021-12-20T13:06:13.000Z,339186,TRUE,2021-12-20T12:46:40.000Z,word,left,mismatch,1,12.5
64,291,L,invalid,524,telefono,right_mismatch,53.20051056,2021-12-20T13:06:13.000Z,339186,TRUE,2021-12-20T12:46:40.000Z,word,right,mismatch,1,12.5
65,209,A,invalid,514,pomodoro,left_mismatch,53.20051056,2021-12-20T13:06:13.000Z,339186,TRUE,2021-12-20T12:46:40.000Z,word,left,mismatch,1,12.5
74,199,A,invalid,432,cervo,left_mismatch,53.20051056,2021-12-20T13:06:13.000Z,339186,TRUE,2021-12-20T12:46:40.000Z,word,left,mismatch,1,12.5
79,289,L,invalid,647,tartaruga,right_mismatch,53.20051056,2021-12-20T13:06:13.000Z,339186,TRUE,2021-12-20T12:46:40.000Z,word,right,mismatch,1,12.5
95,276,L,invalid,447,cane,right_mismatch,53.20051056,2021-12-20T13:06:13.000Z,339186,TRUE,2021-12-20T12:46:40.000Z,word,right,mismatch,1,12.5
100,293,L,invalid,341,uva,right_mismatch,53.20051056,2021-12-20T13:06:13.000Z,339186,TRUE,2021-12-20T12:46:40.000Z,word,right,mismatch,1,12.5
113,290,L,invalid,497,telecomando,right_mismatch,53.20051056,2021-12-20T13:06:13.000Z,339186,TRUE,2021-12-20T12:46:40.000Z,word,right,mismatch,1,12.5
114,275,L,invalid,450,bicchiere,right_mismatch,53.20051056,2021-12-20T13:06:13.000Z,339186,TRUE,2021-12-20T12:46:40.000Z,word,right,mismatch,1,12.5
117,204,A,invalid,434,melone,left_mismatch,53.20051056,2021-12-20T13:06:13.000Z,339186,TRUE,2021-12-20T12:46:40.000Z,word,left,mismatch,1,12.5
123,200,A,invalid,448,chiave,left_mismatch,53.20051056,2021-12-20T13:06:13.000Z,339186,TRUE,2021-12-20T12:46:40.000Z,word,left,mismatch,1,12.5
140,201,A,invalid,333,coniglio,left_mismatch,53.20051056,2021-12-20T13:06:13.000Z,339186,TRUE,2021-12-20T12:46:40.000Z,word,left,mismatch,1,12.5
144,202,A,invalid,348,frullatore,left_mismatch,53.20051056,2021-12-20T13:06:13.000Z,339186,TRUE,2021-12-20T12:46:40.000Z,word,left,mismatch,1,12.5
4,102,L,valid,637,2017,right_match,53.20051056,2021-12-20T13:06:13.000Z,339186,TRUE,2021-12-20T12:46:40.000Z,non-word,right,match,1,12.5
6,26,A,valid,343,2023,left_match,53.20051056,2021-12-20T13:06:13.000Z,339186,TRUE,2021-12-20T12:46:40.000Z,non-word,left,match,1,12.5
11,38,A,valid,331,2058,left_match,53.20051056,2021-12-20T13:06:13.000Z,339186,TRUE,2021-12-20T12:46:40.000Z,non-word,left,match,1,12.5
16,111,L,valid,415,2039,right_match,53.20051056,2021-12-20T13:06:13.000Z,339186,TRUE,2021-12-20T12:46:40.000Z,non-word,right,match,1,12.5
25,103,L,valid,433,2019,right_match,53.20051056,2021-12-20T13:06:13.000Z,339186,TRUE,2021-12-20T12:46:40.000Z,non-word,right,match,1,12.5
35,107,L,valid,415,2030,right_match,53.20051056,2021-12-20T13:06:13.000Z,339186,TRUE,2021-12-20T12:46:40.000Z,non-word,right,match,1,12.5
38,25,A,valid,350,2019,left_match,53.20051056,2021-12-20T13:06:13.000Z,339186,TRUE,2021-12-20T12:46:40.000Z,non-word,left,match,1,12.5
55,100,L,valid,481,2010,right_match,53.20051056,2021-12-20T13:06:13.000Z,339186,TRUE,2021-12-20T12:46:40.000Z,non-word,right,match,1,12.5
60,104,L,valid,496,2023,right_match,53.20051056,2021-12-20T13:06:13.000Z,339186,TRUE,2021-12-20T12:46:40.000Z,non-word,right,match,1,12.5
63,114,L,valid,403,2049,right_match,53.20051056,2021-12-20T13:06:13.000Z,339186,TRUE,2021-12-20T12:46:40.000Z,non-word,right,match,1,12.5
66,117,L,valid,583,2059,right_match,53.20051056,2021-12-20T13:06:13.000Z,339186,TRUE,2021-12-20T12:46:40.000Z,non-word,right,match,1,12.5
78,34,A,valid,453,2040,left_match,53.20051056,2021-12-20T13:06:13.000Z,339186,TRUE,2021-12-20T12:46:40.000Z,non-word,left,match,1,12.5
83,39,A,valid,367,2059,left_match,53.20051056,2021-12-20T13:06:13.000Z,339186,TRUE,2021-12-20T12:46:40.000Z,non-word,left,match,1,12.5
87,101,L,valid,567,2013,right_match,53.20051056,2021-12-20T13:06:13.000Z,339186,TRUE,2021-12-20T12:46:40.000Z,non-word,right,match,1,12.5
115,32,A,valid,431,2037,left_match,53.20051056,2021-12-20T13:06:13.000Z,339186,TRUE,2021-12-20T12:46:40.000Z,non-word,left,match,1,12.5
119,24,A,valid,415,2017,left_match,53.20051056,2021-12-20T13:06:13.000Z,339186,TRUE,2021-12-20T12:46:40.000Z,non-word,left,match,1,12.5
121,29,A,valid,415,2030,left_match,53.20051056,2021-12-20T13:06:13.000Z,339186,TRUE,2021-12-20T12:46:40.000Z,non-word,left,match,1,12.5
128,109,L,valid,417,2036,right_match,53.20051056,2021-12-20T13:06:13.000Z,339186,TRUE,2021-12-20T12:46:40.000Z,non-word,right,match,1,12.5
1,3,A,valid,533,cane,left_match,53.20051056,2021-12-20T13:06:13.000Z,339186,TRUE,2021-12-20T12:46:40.000Z,word,left,match,1,14.583333333333334
5,95,L,valid,434,telecomando,right_match,53.20051056,2021-12-20T13:06:13.000Z,339186,TRUE,2021-12-20T12:46:40.000Z,word,right,match,1,14.583333333333334
19,89,L,valid,351,occhiali,right_match,53.20051056,2021-12-20T13:06:13.000Z,339186,TRUE,2021-12-20T12:46:40.000Z,word,right,match,1,14.583333333333334
24,82,L,valid,349,cervo,right_match,53.20051056,2021-12-20T13:06:13.000Z,339186,TRUE,2021-12-20T12:46:40.000Z,word,right,match,1,14.583333333333334
34,94,L,valid,415,tartaruga,right_match,53.20051056,2021-12-20T13:06:13.000Z,339186,TRUE,2021-12-20T12:46:40.000Z,word,right,match,1,14.583333333333334
44,18,A,valid,355,telefono,left_match,53.20051056,2021-12-20T13:06:13.000Z,339186,TRUE,2021-12-20T12:46:40.000Z,word,left,match,1,14.583333333333334
46,81,L,valid,584,cane,right_match,53.20051056,2021-12-20T13:06:13.000Z,339186,TRUE,2021-12-20T12:46:40.000Z,word,right,match,1,14.583333333333334
58,15,A,valid,418,rasoio,left_match,53.20051056,2021-12-20T13:06:13.000Z,339186,TRUE,2021-12-20T12:46:40.000Z,word,left,match,1,14.583333333333334
61,16,A,valid,277,tartaruga,left_match,53.20051056,2021-12-20T13:06:13.000Z,339186,TRUE,2021-12-20T12:46:40.000Z,word,left,match,1,14.583333333333334
68,80,L,valid,492,bicchiere,right_match,53.20051056,2021-12-20T13:06:13.000Z,339186,TRUE,2021-12-20T12:46:40.000Z,word,right,match,1,14.583333333333334
70,86,L,valid,415,mandorla,right_match,53.20051056,2021-12-20T13:06:13.000Z,339186,TRUE,2021-12-20T12:46:40.000Z,word,right,match,1,14.583333333333334
91,1,A,valid,433,banana,left_match,53.20051056,2021-12-20T13:06:13.000Z,339186,TRUE,2021-12-20T12:46:40.000Z,word,left,match,1,14.583333333333334
94,96,L,valid,419,telefono,right_match,53.20051056,2021-12-20T13:06:13.000Z,339186,TRUE,2021-12-20T12:46:40.000Z,word,right,match,1,14.583333333333334
97,83,L,valid,352,chiave,right_match,53.20051056,2021-12-20T13:06:13.000Z,339186,TRUE,2021-12-20T12:46:40.000Z,word,right,match,1,14.583333333333334
101,7,A,valid,414,frullatore,left_match,53.20051056,2021-12-20T13:06:13.000Z,339186,TRUE,2021-12-20T12:46:40.000Z,word,left,match,1,14.583333333333334
102,13,A,valid,515,pistola,left_match,53.20051056,2021-12-20T13:06:13.000Z,339186,TRUE,2021-12-20T12:46:40.000Z,word,left,match,1,14.583333333333334
105,84,L,valid,349,coniglio,right_match,53.20051056,2021-12-20T13:06:13.000Z,339186,TRUE,2021-12-20T12:46:40.000Z,word,right,match,1,14.583333333333334
110,4,A,valid,418,cervo,left_match,53.20051056,2021-12-20T13:06:13.000Z,339186,TRUE,2021-12-20T12:46:40.000Z,word,left,match,1,14.583333333333334
126,6,A,valid,414,coniglio,left_match,53.20051056,2021-12-20T13:06:13.000Z,339186,TRUE,2021-12-20T12:46:40.000Z,word,left,match,1,14.583333333333334
131,90,L,valid,348,pinza,right_match,53.20051056,2021-12-20T13:06:13.000Z,339186,TRUE,2021-12-20T12:46:40.000Z,word,right,match,1,14.583333333333334
137,79,L,valid,340,banana,right_match,53.20051056,2021-12-20T13:06:13.000Z,339186,TRUE,2021-12-20T12:46:40.000Z,word,right,match,1,14.583333333333334
3,266,L,valid,516,2037,right_mismatch,53.20051056,2021-12-20T13:06:13.000Z,339186,TRUE,2021-12-20T12:46:40.000Z,non-word,right,mismatch,1,9.722222222222223
9,262,L,valid,340,2026,right_mismatch,53.20051056,2021-12-20T13:06:13.000Z,339186,TRUE,2021-12-20T12:46:40.000Z,non-word,right,mismatch,1,9.722222222222223
29,271,L,valid,885,2052,right_mismatch,53.20051056,2021-12-20T13:06:13.000Z,339186,TRUE,2021-12-20T12:46:40.000Z,non-word,right,mismatch,1,9.722222222222223
31,193,A,valid,480,2052,left_mismatch,53.20051056,2021-12-20T13:06:13.000Z,339186,TRUE,2021-12-20T12:46:40.000Z,non-word,left,mismatch,1,9.722222222222223
47,263,L,valid,564,2030,right_mismatch,53.20051056,2021-12-20T13:06:13.000Z,339186,TRUE,2021-12-20T12:46:40.000Z,non-word,right,mismatch,1,9.722222222222223
71,182,A,valid,649,2023,left_mismatch,53.20051056,2021-12-20T13:06:13.000Z,339186,TRUE,2021-12-20T12:46:40.000Z,non-word,left,mismatch,1,9.722222222222223
72,257,L,valid,365,2013,right_mismatch,53.20051056,2021-12-20T13:06:13.000Z,339186,TRUE,2021-12-20T12:46:40.000Z,non-word,right,mismatch,1,9.722222222222223
93,259,L,valid,514,2019,right_mismatch,53.20051056,2021-12-20T13:06:13.000Z,339186,TRUE,2021-12-20T12:46:40.000Z,non-word,right,mismatch,1,9.722222222222223
104,261,L,valid,434,2024,right_mismatch,53.20051056,2021-12-20T13:06:13.000Z,339186,TRUE,2021-12-20T12:46:40.000Z,non-word,right,mismatch,1,9.722222222222223
111,185,A,valid,518,2030,left_mismatch,53.20051056,2021-12-20T13:06:13.000Z,339186,TRUE,2021-12-20T12:46:40.000Z,non-word,left,mismatch,1,9.722222222222223
127,195,A,valid,600,2059,left_mismatch,53.20051056,2021-12-20T13:06:13.000Z,339186,TRUE,2021-12-20T12:46:40.000Z,non-word,left,mismatch,1,9.722222222222223
130,255,L,valid,347,2006,right_mismatch,53.20051056,2021-12-20T13:06:13.000Z,339186,TRUE,2021-12-20T12:46:40.000Z,non-word,right,mismatch,1,9.722222222222223
132,192,A,valid,335,2049,left_mismatch,53.20051056,2021-12-20T13:06:13.000Z,339186,TRUE,2021-12-20T12:46:40.000Z,non-word,left,mismatch,1,9.722222222222223
2,165,A,valid,351,melone,left_mismatch,53.20051056,2021-12-20T13:06:13.000Z,339186,TRUE,2021-12-20T12:46:40.000Z,word,left,mismatch,1,15.277777777777779
10,254,L,valid,402,uva,right_mismatch,53.20051056,2021-12-20T13:06:13.000Z,339186,TRUE,2021-12-20T12:46:40.000Z,word,right,mismatch,1,15.277777777777779
21,245,L,valid,347,occhiali,right_mismatch,53.20051056,2021-12-20T13:06:13.000Z,339186,TRUE,2021-12-20T12:46:40.000Z,word,right,mismatch,1,15.277777777777779
22,243,L,valid,434,melone,right_mismatch,53.20051056,2021-12-20T13:06:13.000Z,339186,TRUE,2021-12-20T12:46:40.000Z,word,right,mismatch,1,15.277777777777779
32,242,L,valid,434,mandorla,right_mismatch,53.20051056,2021-12-20T13:06:13.000Z,339186,TRUE,2021-12-20T12:46:40.000Z,word,right,mismatch,1,15.277777777777779
39,253,L,valid,417,termometro,right_mismatch,53.20051056,2021-12-20T13:06:13.000Z,339186,TRUE,2021-12-20T12:46:40.000Z,word,right,mismatch,1,15.277777777777779
40,172,A,valid,286,tartaruga,left_mismatch,53.20051056,2021-12-20T13:06:13.000Z,339186,TRUE,2021-12-20T12:46:40.000Z,word,left,mismatch,1,15.277777777777779
43,170,A,valid,249,pomodoro,left_mismatch,53.20051056,2021-12-20T13:06:13.000Z,339186,TRUE,2021-12-20T12:46:40.000Z,word,left,mismatch,1,15.277777777777779
54,167,A,valid,517,occhiali,left_mismatch,53.20051056,2021-12-20T13:06:13.000Z,339186,TRUE,2021-12-20T12:46:40.000Z,word,left,mismatch,1,15.277777777777779
57,252,L,valid,430,telefono,right_mismatch,53.20051056,2021-12-20T13:06:13.000Z,339186,TRUE,2021-12-20T12:46:40.000Z,word,right,mismatch,1,15.277777777777779
67,235,L,valid,754,banana,right_mismatch,53.20051056,2021-12-20T13:06:13.000Z,339186,TRUE,2021-12-20T12:46:40.000Z,word,right,mismatch,1,15.277777777777779
69,247,L,valid,351,pistola,right_mismatch,53.20051056,2021-12-20T13:06:13.000Z,339186,TRUE,2021-12-20T12:46:40.000Z,word,right,mismatch,1,15.277777777777779
77,249,L,valid,419,rasoio,right_mismatch,53.20051056,2021-12-20T13:06:13.000Z,339186,TRUE,2021-12-20T12:46:40.000Z,word,right,mismatch,1,15.277777777777779
80,237,L,valid,365,cane,right_mismatch,53.20051056,2021-12-20T13:06:13.000Z,339186,TRUE,2021-12-20T12:46:40.000Z,word,right,mismatch,1,15.277777777777779
84,171,A,valid,349,rasoio,left_mismatch,53.20051056,2021-12-20T13:06:13.000Z,339186,TRUE,2021-12-20T12:46:40.000Z,word,left,mismatch,1,15.277777777777779
89,238,L,valid,434,cervo,right_mismatch,53.20051056,2021-12-20T13:06:13.000Z,339186,TRUE,2021-12-20T12:46:40.000Z,word,right,mismatch,1,15.277777777777779
90,166,A,valid,436,mucca,left_mismatch,53.20051056,2021-12-20T13:06:13.000Z,339186,TRUE,2021-12-20T12:46:40.000Z,word,left,mismatch,1,15.277777777777779
98,161,A,valid,362,chiave,left_mismatch,53.20051056,2021-12-20T13:06:13.000Z,339186,TRUE,2021-12-20T12:46:40.000Z,word,left,mismatch,1,15.277777777777779
107,175,A,valid,349,termometro,left_mismatch,53.20051056,2021-12-20T13:06:13.000Z,339186,TRUE,2021-12-20T12:46:40.000Z,word,left,mismatch,1,15.277777777777779
129,173,A,valid,425,telecomando,left_mismatch,53.20051056,2021-12-20T13:06:13.000Z,339186,TRUE,2021-12-20T12:46:40.000Z,word,left,mismatch,1,15.277777777777779
134,246,L,valid,367,pinza,right_mismatch,53.20051056,2021-12-20T13:06:13.000Z,339186,TRUE,2021-12-20T12:46:40.000Z,word,right,mismatch,1,15.277777777777779
139,244,L,valid,429,mucca,right_mismatch,53.20051056,2021-12-20T13:06:13.000Z,339186,TRUE,2021-12-20T12:46:40.000Z,word,right,mismatch,1,15.277777777777779
NA,NA,NA,NA,NA,NA,NA,NA,NA,NA,NA,NA,NA,NA,NA,NA,NA
NA,NA,NA,NA,NA,NA,NA,NA,NA,NA,NA,NA,NA,NA,NA,NA,NA
NA,NA,NA,NA,NA,NA,NA,NA,NA,NA,NA,NA,NA,NA,NA,NA,NA
NA,NA,NA,NA,NA,NA,NA,NA,NA,NA,NA,NA,NA,NA,NA,NA,NA
NA,NA,NA,NA,NA,NA,NA,NA,NA,NA,NA,NA,NA,NA,NA,NA,NA
NA,NA,NA,NA,NA,NA,NA,NA,NA,NA,NA,NA,NA,NA,NA,NA,NA
12,147,L,invalid,869,2034,right_match,34.79718367,2021-12-20T13:11:35.000Z,339220,TRUE,2021-12-20T12:54:13.000Z,non-word,right,match,1,13.194444444444445
26,156,L,invalid,605,2059,right_match,34.79718367,2021-12-20T13:11:35.000Z,339220,TRUE,2021-12-20T12:54:13.000Z,non-word,right,match,1,13.194444444444445
27,139,L,invalid,642,2010,right_match,34.79718367,2021-12-20T13:11:35.000Z,339220,TRUE,2021-12-20T12:54:13.000Z,non-word,right,match,1,13.194444444444445
33,63,A,invalid,571,2017,left_match,34.79718367,2021-12-20T13:11:35.000Z,339220,TRUE,2021-12-20T12:54:13.000Z,non-word,left,match,1,13.194444444444445
35,153,L,invalid,745,2049,right_match,34.79718367,2021-12-20T13:11:35.000Z,339220,TRUE,2021-12-20T12:54:13.000Z,non-word,right,match,1,13.194444444444445
40,142,L,invalid,599,2019,right_match,34.79718367,2021-12-20T13:11:35.000Z,339220,TRUE,2021-12-20T12:54:13.000Z,non-word,right,match,1,13.194444444444445
54,68,A,invalid,503,2030,left_match,34.79718367,2021-12-20T13:11:35.000Z,339220,TRUE,2021-12-20T12:54:13.000Z,non-word,left,match,1,13.194444444444445
58,152,L,invalid,793,2044,right_match,34.79718367,2021-12-20T13:11:35.000Z,339220,TRUE,2021-12-20T12:54:13.000Z,non-word,right,match,1,13.194444444444445
62,151,L,invalid,721,2040,right_match,34.79718367,2021-12-20T13:11:35.000Z,339220,TRUE,2021-12-20T12:54:13.000Z,non-word,right,match,1,13.194444444444445
76,150,L,invalid,710,2039,right_match,34.79718367,2021-12-20T13:11:35.000Z,339220,TRUE,2021-12-20T12:54:13.000Z,non-word,right,match,1,13.194444444444445
96,144,L,invalid,470,2024,right_match,34.79718367,2021-12-20T13:11:35.000Z,339220,TRUE,2021-12-20T12:54:13.000Z,non-word,right,match,1,13.194444444444445
106,72,A,invalid,499,2039,left_match,34.79718367,2021-12-20T13:11:35.000Z,339220,TRUE,2021-12-20T12:54:13.000Z,non-word,left,match,1,13.194444444444445
118,78,A,invalid,494,2059,left_match,34.79718367,2021-12-20T13:11:35.000Z,339220,TRUE,2021-12-20T12:54:13.000Z,non-word,left,match,1,13.194444444444445
121,71,A,invalid,452,2037,left_match,34.79718367,2021-12-20T13:11:35.000Z,339220,TRUE,2021-12-20T12:54:13.000Z,non-word,left,match,1,13.194444444444445
130,140,L,invalid,964,2013,right_match,34.79718367,2021-12-20T13:11:35.000Z,339220,TRUE,2021-12-20T12:54:13.000Z,non-word,right,match,1,13.194444444444445
135,141,L,invalid,678,2017,right_match,34.79718367,2021-12-20T13:11:35.000Z,339220,TRUE,2021-12-20T12:54:13.000Z,non-word,right,match,1,13.194444444444445
140,77,A,invalid,610,2058,left_match,34.79718367,2021-12-20T13:11:35.000Z,339220,TRUE,2021-12-20T12:54:13.000Z,non-word,left,match,1,13.194444444444445
8,47,A,invalid,876,mandorla,left_match,34.79718367,2021-12-20T13:11:35.000Z,339220,TRUE,2021-12-20T12:54:13.000Z,word,left,match,1,12.5
14,40,A,invalid,837,banana,left_match,34.79718367,2021-12-20T13:11:35.000Z,339220,TRUE,2021-12-20T12:54:13.000Z,word,left,match,1,12.5
16,46,A,invalid,952,frullatore,left_match,34.79718367,2021-12-20T13:11:35.000Z,339220,TRUE,2021-12-20T12:54:13.000Z,word,left,match,1,12.5
28,132,L,invalid,831,rasoio,right_match,34.79718367,2021-12-20T13:11:35.000Z,339220,TRUE,2021-12-20T12:54:13.000Z,word,right,match,1,12.5
52,55,A,invalid,466,tartaruga,left_match,34.79718367,2021-12-20T13:11:35.000Z,339220,TRUE,2021-12-20T12:54:13.000Z,word,left,match,1,12.5
57,135,L,invalid,633,telefono,right_match,34.79718367,2021-12-20T13:11:35.000Z,339220,TRUE,2021-12-20T12:54:13.000Z,word,right,match,1,12.5
61,56,A,invalid,500,telecomando,left_match,34.79718367,2021-12-20T13:11:35.000Z,339220,TRUE,2021-12-20T12:54:13.000Z,word,left,match,1,12.5
63,136,L,invalid,847,termometro,right_match,34.79718367,2021-12-20T13:11:35.000Z,339220,TRUE,2021-12-20T12:54:13.000Z,word,right,match,1,12.5
84,50,A,invalid,649,occhiali,left_match,34.79718367,2021-12-20T13:11:35.000Z,339220,TRUE,2021-12-20T12:54:13.000Z,word,left,match,1,12.5
86,137,L,invalid,420,uva,right_match,34.79718367,2021-12-20T13:11:35.000Z,339220,TRUE,2021-12-20T12:54:13.000Z,word,right,match,1,12.5
98,48,A,invalid,477,melone,left_match,34.79718367,2021-12-20T13:11:35.000Z,339220,TRUE,2021-12-20T12:54:13.000Z,word,left,match,1,12.5
107,44,A,invalid,394,chiave,left_match,34.79718367,2021-12-20T13:11:35.000Z,339220,TRUE,2021-12-20T12:54:13.000Z,word,left,match,1,12.5
114,119,L,invalid,478,bicchiere,right_match,34.79718367,2021-12-20T13:11:35.000Z,339220,TRUE,2021-12-20T12:54:13.000Z,word,right,match,1,12.5
116,131,L,invalid,479,pomodoro,right_match,34.79718367,2021-12-20T13:11:35.000Z,339220,TRUE,2021-12-20T12:54:13.000Z,word,right,match,1,12.5
117,49,A,invalid,552,mucca,left_match,34.79718367,2021-12-20T13:11:35.000Z,339220,TRUE,2021-12-20T12:54:13.000Z,word,left,match,1,12.5
119,124,L,invalid,496,frullatore,right_match,34.79718367,2021-12-20T13:11:35.000Z,339220,TRUE,2021-12-20T12:54:13.000Z,word,right,match,1,12.5
120,58,A,invalid,707,termometro,left_match,34.79718367,2021-12-20T13:11:35.000Z,339220,TRUE,2021-12-20T12:54:13.000Z,word,left,match,1,12.5
143,127,L,invalid,604,mucca,right_match,34.79718367,2021-12-20T13:11:35.000Z,339220,TRUE,2021-12-20T12:54:13.000Z,word,right,match,1,12.5
9,309,L,invalid,609,2049,right_mismatch,34.79718367,2021-12-20T13:11:35.000Z,339220,TRUE,2021-12-20T12:54:13.000Z,non-word,right,mismatch,1,9.722222222222223
23,224,A,invalid,611,2030,left_mismatch,34.79718367,2021-12-20T13:11:35.000Z,339220,TRUE,2021-12-20T12:54:13.000Z,non-word,left,mismatch,1,9.722222222222223
32,225,A,invalid,571,2034,left_mismatch,34.79718367,2021-12-20T13:11:35.000Z,339220,TRUE,2021-12-20T12:54:13.000Z,non-word,left,mismatch,1,9.722222222222223
44,311,L,invalid,612,2058,right_mismatch,34.79718367,2021-12-20T13:11:35.000Z,339220,TRUE,2021-12-20T12:54:13.000Z,non-word,right,mismatch,1,9.722222222222223
53,307,L,invalid,477,2040,right_mismatch,34.79718367,2021-12-20T13:11:35.000Z,339220,TRUE,2021-12-20T12:54:13.000Z,non-word,right,mismatch,1,9.722222222222223
70,312,L,invalid,466,2059,right_mismatch,34.79718367,2021-12-20T13:11:35.000Z,339220,TRUE,2021-12-20T12:54:13.000Z,non-word,right,mismatch,1,9.722222222222223
77,231,A,invalid,483,2049,left_mismatch,34.79718367,2021-12-20T13:11:35.000Z,339220,TRUE,2021-12-20T12:54:13.000Z,non-word,left,mismatch,1,9.722222222222223
88,227,A,invalid,456,2037,left_mismatch,34.79718367,2021-12-20T13:11:35.000Z,339220,TRUE,2021-12-20T12:54:13.000Z,non-word,left,mismatch,1,9.722222222222223
91,299,L,invalid,503,2023,right_mismatch,34.79718367,2021-12-20T13:11:35.000Z,339220,TRUE,2021-12-20T12:54:13.000Z,non-word,right,mismatch,1,9.722222222222223
101,228,A,invalid,603,2039,left_mismatch,34.79718367,2021-12-20T13:11:35.000Z,339220,TRUE,2021-12-20T12:54:13.000Z,non-word,left,mismatch,1,9.722222222222223
108,300,L,invalid,467,2024,right_mismatch,34.79718367,2021-12-20T13:11:35.000Z,339220,TRUE,2021-12-20T12:54:13.000Z,non-word,right,mismatch,1,9.722222222222223
112,301,L,invalid,589,2026,right_mismatch,34.79718367,2021-12-20T13:11:35.000Z,339220,TRUE,2021-12-20T12:54:13.000Z,non-word,right,mismatch,1,9.722222222222223
134,217,A,invalid,724,2010,left_mismatch,34.79718367,2021-12-20T13:11:35.000Z,339220,TRUE,2021-12-20T12:54:13.000Z,non-word,left,mismatch,1,9.722222222222223
144,216,A,invalid,541,2006,left_mismatch,34.79718367,2021-12-20T13:11:35.000Z,339220,TRUE,2021-12-20T12:54:13.000Z,non-word,left,mismatch,1,9.722222222222223
3,293,L,invalid,708,uva,right_mismatch,34.79718367,2021-12-20T13:11:35.000Z,339220,TRUE,2021-12-20T12:54:13.000Z,word,right,mismatch,1,15.277777777777779
5,285,L,invalid,853,pinza,right_mismatch,34.79718367,2021-12-20T13:11:35.000Z,339220,TRUE,2021-12-20T12:54:13.000Z,word,right,mismatch,1,15.277777777777779
11,196,A,invalid,783,banana,left_mismatch,34.79718367,2021-12-20T13:11:35.000Z,339220,TRUE,2021-12-20T12:54:13.000Z,word,left,mismatch,1,15.277777777777779
18,287,L,invalid,965,pomodoro,right_mismatch,34.79718367,2021-12-20T13:11:35.000Z,339220,TRUE,2021-12-20T12:54:13.000Z,word,right,mismatch,1,15.277777777777779
34,289,L,invalid,634,tartaruga,right_mismatch,34.79718367,2021-12-20T13:11:35.000Z,339220,TRUE,2021-12-20T12:54:13.000Z,word,right,mismatch,1,15.277777777777779
41,277,L,invalid,723,cervo,right_mismatch,34.79718367,2021-12-20T13:11:35.000Z,339220,TRUE,2021-12-20T12:54:13.000Z,word,right,mismatch,1,15.277777777777779
43,208,A,invalid,738,pistola,left_mismatch,34.79718367,2021-12-20T13:11:35.000Z,339220,TRUE,2021-12-20T12:54:13.000Z,word,left,mismatch,1,15.277777777777779
50,213,A,invalid,608,telefono,left_mismatch,34.79718367,2021-12-20T13:11:35.000Z,339220,TRUE,2021-12-20T12:54:13.000Z,word,left,mismatch,1,15.277777777777779
55,288,L,invalid,436,rasoio,right_mismatch,34.79718367,2021-12-20T13:11:35.000Z,339220,TRUE,2021-12-20T12:54:13.000Z,word,right,mismatch,1,15.277777777777779
72,207,A,invalid,568,pinza,left_mismatch,34.79718367,2021-12-20T13:11:35.000Z,339220,TRUE,2021-12-20T12:54:13.000Z,word,left,mismatch,1,15.277777777777779
74,292,L,invalid,498,termometro,right_mismatch,34.79718367,2021-12-20T13:11:35.000Z,339220,TRUE,2021-12-20T12:54:13.000Z,word,right,mismatch,1,15.277777777777779
75,275,L,invalid,512,bicchiere,right_mismatch,34.79718367,2021-12-20T13:11:35.000Z,339220,TRUE,2021-12-20T12:54:13.000Z,word,right,mismatch,1,15.277777777777779
78,279,L,invalid,735,coniglio,right_mismatch,34.79718367,2021-12-20T13:11:35.000Z,339220,TRUE,2021-12-20T12:54:13.000Z,word,right,mismatch,1,15.277777777777779
81,280,L,invalid,617,frullatore,right_mismatch,34.79718367,2021-12-20T13:11:35.000Z,339220,TRUE,2021-12-20T12:54:13.000Z,word,right,mismatch,1,15.277777777777779
93,286,L,invalid,460,pistola,right_mismatch,34.79718367,2021-12-20T13:11:35.000Z,339220,TRUE,2021-12-20T12:54:13.000Z,word,right,mismatch,1,15.277777777777779
99,274,L,invalid,757,banana,right_mismatch,34.79718367,2021-12-20T13:11:35.000Z,339220,TRUE,2021-12-20T12:54:13.000Z,word,right,mismatch,1,15.277777777777779
104,210,A,invalid,392,rasoio,left_mismatch,34.79718367,2021-12-20T13:11:35.000Z,339220,TRUE,2021-12-20T12:54:13.000Z,word,left,mismatch,1,15.277777777777779
113,209,A,invalid,559,pomodoro,left_mismatch,34.79718367,2021-12-20T13:11:35.000Z,339220,TRUE,2021-12-20T12:54:13.000Z,word,left,mismatch,1,15.277777777777779
122,276,L,invalid,621,cane,right_mismatch,34.79718367,2021-12-20T13:11:35.000Z,339220,TRUE,2021-12-20T12:54:13.000Z,word,right,mismatch,1,15.277777777777779
131,212,A,invalid,739,telecomando,left_mismatch,34.79718367,2021-12-20T13:11:35.000Z,339220,TRUE,2021-12-20T12:54:13.000Z,word,left,mismatch,1,15.277777777777779
141,282,L,invalid,623,melone,right_mismatch,34.79718367,2021-12-20T13:11:35.000Z,339220,TRUE,2021-12-20T12:54:13.000Z,word,right,mismatch,1,15.277777777777779
142,278,L,invalid,472,chiave,right_mismatch,34.79718367,2021-12-20T13:11:35.000Z,339220,TRUE,2021-12-20T12:54:13.000Z,word,right,mismatch,1,15.277777777777779
13,117,L,valid,787,2059,right_match,34.79718367,2021-12-20T13:11:35.000Z,339220,TRUE,2021-12-20T12:54:13.000Z,non-word,right,match,1,11.805555555555555
24,110,L,valid,596,2037,right_match,34.79718367,2021-12-20T13:11:35.000Z,339220,TRUE,2021-12-20T12:54:13.000Z,non-word,right,match,1,11.805555555555555
31,115,L,valid,817,2052,right_match,34.79718367,2021-12-20T13:11:35.000Z,339220,TRUE,2021-12-20T12:54:13.000Z,non-word,right,match,1,11.805555555555555
42,21,A,valid,891,2006,left_match,34.79718367,2021-12-20T13:11:35.000Z,339220,TRUE,2021-12-20T12:54:13.000Z,non-word,left,match,1,11.805555555555555
46,99,L,valid,598,2006,right_match,34.79718367,2021-12-20T13:11:35.000Z,339220,TRUE,2021-12-20T12:54:13.000Z,non-word,right,match,1,11.805555555555555
47,34,A,valid,572,2040,left_match,34.79718367,2021-12-20T13:11:35.000Z,339220,TRUE,2021-12-20T12:54:13.000Z,non-word,left,match,1,11.805555555555555
49,29,A,valid,372,2030,left_match,34.79718367,2021-12-20T13:11:35.000Z,339220,TRUE,2021-12-20T12:54:13.000Z,non-word,left,match,1,11.805555555555555
51,102,L,valid,603,2017,right_match,34.79718367,2021-12-20T13:11:35.000Z,339220,TRUE,2021-12-20T12:54:13.000Z,non-word,right,match,1,11.805555555555555
60,114,L,valid,596,2049,right_match,34.79718367,2021-12-20T13:11:35.000Z,339220,TRUE,2021-12-20T12:54:13.000Z,non-word,right,match,1,11.805555555555555
83,27,A,valid,677,2024,left_match,34.79718367,2021-12-20T13:11:35.000Z,339220,TRUE,2021-12-20T12:54:13.000Z,non-word,left,match,1,11.805555555555555
94,22,A,valid,506,2010,left_match,34.79718367,2021-12-20T13:11:35.000Z,339220,TRUE,2021-12-20T12:54:13.000Z,non-word,left,match,1,11.805555555555555
97,116,L,valid,384,2058,right_match,34.79718367,2021-12-20T13:11:35.000Z,339220,TRUE,2021-12-20T12:54:13.000Z,non-word,right,match,1,11.805555555555555
115,103,L,valid,384,2019,right_match,34.79718367,2021-12-20T13:11:35.000Z,339220,TRUE,2021-12-20T12:54:13.000Z,non-word,right,match,1,11.805555555555555
124,113,L,valid,646,2044,right_match,34.79718367,2021-12-20T13:11:35.000Z,339220,TRUE,2021-12-20T12:54:13.000Z,non-word,right,match,1,11.805555555555555
125,100,L,valid,599,2010,right_match,34.79718367,2021-12-20T13:11:35.000Z,339220,TRUE,2021-12-20T12:54:13.000Z,non-word,right,match,1,11.805555555555555
127,37,A,valid,566,2052,left_match,34.79718367,2021-12-20T13:11:35.000Z,339220,TRUE,2021-12-20T12:54:13.000Z,non-word,left,match,1,11.805555555555555
7,20,A,valid,730,uva,left_match,34.79718367,2021-12-20T13:11:35.000Z,339220,TRUE,2021-12-20T12:54:13.000Z,word,left,match,1,10.416666666666668
19,92,L,valid,857,pomodoro,right_match,34.79718367,2021-12-20T13:11:35.000Z,339220,TRUE,2021-12-20T12:54:13.000Z,word,right,match,1,10.416666666666668
48,90,L,valid,495,pinza,right_match,34.79718367,2021-12-20T13:11:35.000Z,339220,TRUE,2021-12-20T12:54:13.000Z,word,right,match,1,10.416666666666668
56,86,L,valid,376,mandorla,right_match,34.79718367,2021-12-20T13:11:35.000Z,339220,TRUE,2021-12-20T12:54:13.000Z,word,right,match,1,10.416666666666668
69,79,L,valid,509,banana,right_match,34.79718367,2021-12-20T13:11:35.000Z,339220,TRUE,2021-12-20T12:54:13.000Z,word,right,match,1,10.416666666666668
79,95,L,valid,463,telecomando,right_match,34.79718367,2021-12-20T13:11:35.000Z,339220,TRUE,2021-12-20T12:54:13.000Z,word,right,match,1,10.416666666666668
80,97,L,valid,523,termometro,right_match,34.79718367,2021-12-20T13:11:35.000Z,339220,TRUE,2021-12-20T12:54:13.000Z,word,right,match,1,10.416666666666668
82,15,A,valid,602,rasoio,left_match,34.79718367,2021-12-20T13:11:35.000Z,339220,TRUE,2021-12-20T12:54:13.000Z,word,left,match,1,10.416666666666668
90,11,A,valid,465,occhiali,left_match,34.79718367,2021-12-20T13:11:35.000Z,339220,TRUE,2021-12-20T12:54:13.000Z,word,left,match,1,10.416666666666668
95,84,L,valid,398,coniglio,right_match,34.79718367,2021-12-20T13:11:35.000Z,339220,TRUE,2021-12-20T12:54:13.000Z,word,right,match,1,10.416666666666668
100,7,A,valid,462,frullatore,left_match,34.79718367,2021-12-20T13:11:35.000Z,339220,TRUE,2021-12-20T12:54:13.000Z,word,left,match,1,10.416666666666668
103,5,A,valid,413,chiave,left_match,34.79718367,2021-12-20T13:11:35.000Z,339220,TRUE,2021-12-20T12:54:13.000Z,word,left,match,1,10.416666666666668
133,13,A,valid,368,pistola,left_match,34.79718367,2021-12-20T13:11:35.000Z,339220,TRUE,2021-12-20T12:54:13.000Z,word,left,match,1,10.416666666666668
137,94,L,valid,544,tartaruga,right_match,34.79718367,2021-12-20T13:11:35.000Z,339220,TRUE,2021-12-20T12:54:13.000Z,word,right,match,1,10.416666666666668
138,98,L,valid,474,uva,right_match,34.79718367,2021-12-20T13:11:35.000Z,339220,TRUE,2021-12-20T12:54:13.000Z,word,right,match,1,10.416666666666668
2,178,A,valid,416,2010,left_mismatch,34.79718367,2021-12-20T13:11:35.000Z,339220,TRUE,2021-12-20T12:54:13.000Z,non-word,left,mismatch,1,15.277777777777779
15,189,A,valid,725,2039,left_mismatch,34.79718367,2021-12-20T13:11:35.000Z,339220,TRUE,2021-12-20T12:54:13.000Z,non-word,left,mismatch,1,15.277777777777779
20,194,A,valid,865,2058,left_mismatch,34.79718367,2021-12-20T13:11:35.000Z,339220,TRUE,2021-12-20T12:54:13.000Z,non-word,left,mismatch,1,15.277777777777779
25,190,A,valid,509,2040,left_mismatch,34.79718367,2021-12-20T13:11:35.000Z,339220,TRUE,2021-12-20T12:54:13.000Z,non-word,left,mismatch,1,15.277777777777779
29,259,L,valid,638,2019,right_mismatch,34.79718367,2021-12-20T13:11:35.000Z,339220,TRUE,2021-12-20T12:54:13.000Z,non-word,right,mismatch,1,15.277777777777779
30,183,A,valid,605,2024,left_mismatch,34.79718367,2021-12-20T13:11:35.000Z,339220,TRUE,2021-12-20T12:54:13.000Z,non-word,left,mismatch,1,15.277777777777779
36,192,A,valid,603,2049,left_mismatch,34.79718367,2021-12-20T13:11:35.000Z,339220,TRUE,2021-12-20T12:54:13.000Z,non-word,left,mismatch,1,15.277777777777779
39,261,L,valid,470,2024,right_mismatch,34.79718367,2021-12-20T13:11:35.000Z,339220,TRUE,2021-12-20T12:54:13.000Z,non-word,right,mismatch,1,15.277777777777779
45,257,L,valid,603,2013,right_mismatch,34.79718367,2021-12-20T13:11:35.000Z,339220,TRUE,2021-12-20T12:54:13.000Z,non-word,right,mismatch,1,15.277777777777779
59,179,A,valid,494,2013,left_mismatch,34.79718367,2021-12-20T13:11:35.000Z,339220,TRUE,2021-12-20T12:54:13.000Z,non-word,left,mismatch,1,15.277777777777779
64,195,A,valid,636,2059,left_mismatch,34.79718367,2021-12-20T13:11:35.000Z,339220,TRUE,2021-12-20T12:54:13.000Z,non-word,left,mismatch,1,15.277777777777779
66,273,L,valid,655,2059,right_mismatch,34.79718367,2021-12-20T13:11:35.000Z,339220,TRUE,2021-12-20T12:54:13.000Z,non-word,right,mismatch,1,15.277777777777779
67,184,A,valid,475,2026,left_mismatch,34.79718367,2021-12-20T13:11:35.000Z,339220,TRUE,2021-12-20T12:54:13.000Z,non-word,left,mismatch,1,15.277777777777779
68,180,A,valid,480,2017,left_mismatch,34.79718367,2021-12-20T13:11:35.000Z,339220,TRUE,2021-12-20T12:54:13.000Z,non-word,left,mismatch,1,15.277777777777779
87,191,A,valid,692,2044,left_mismatch,34.79718367,2021-12-20T13:11:35.000Z,339220,TRUE,2021-12-20T12:54:13.000Z,non-word,left,mismatch,1,15.277777777777779
92,255,L,valid,629,2006,right_mismatch,34.79718367,2021-12-20T13:11:35.000Z,339220,TRUE,2021-12-20T12:54:13.000Z,non-word,right,mismatch,1,15.277777777777779
102,263,L,valid,622,2030,right_mismatch,34.79718367,2021-12-20T13:11:35.000Z,339220,TRUE,2021-12-20T12:54:13.000Z,non-word,right,mismatch,1,15.277777777777779
111,260,L,valid,455,2023,right_mismatch,34.79718367,2021-12-20T13:11:35.000Z,339220,TRUE,2021-12-20T12:54:13.000Z,non-word,right,mismatch,1,15.277777777777779
123,262,L,valid,437,2026,right_mismatch,34.79718367,2021-12-20T13:11:35.000Z,339220,TRUE,2021-12-20T12:54:13.000Z,non-word,right,mismatch,1,15.277777777777779
128,256,L,valid,511,2010,right_mismatch,34.79718367,2021-12-20T13:11:35.000Z,339220,TRUE,2021-12-20T12:54:13.000Z,non-word,right,mismatch,1,15.277777777777779
129,270,L,valid,592,2049,right_mismatch,34.79718367,2021-12-20T13:11:35.000Z,339220,TRUE,2021-12-20T12:54:13.000Z,non-word,right,mismatch,1,15.277777777777779
136,265,L,valid,573,2036,right_mismatch,34.79718367,2021-12-20T13:11:35.000Z,339220,TRUE,2021-12-20T12:54:13.000Z,non-word,right,mismatch,1,15.277777777777779
4,166,A,valid,731,mucca,left_mismatch,34.79718367,2021-12-20T13:11:35.000Z,339220,TRUE,2021-12-20T12:54:13.000Z,word,left,mismatch,1,10.416666666666668
6,247,L,valid,500,pistola,right_mismatch,34.79718367,2021-12-20T13:11:35.000Z,339220,TRUE,2021-12-20T12:54:13.000Z,word,right,mismatch,1,10.416666666666668
10,238,L,valid,753,cervo,right_mismatch,34.79718367,2021-12-20T13:11:35.000Z,339220,TRUE,2021-12-20T12:54:13.000Z,word,right,mismatch,1,10.416666666666668
37,240,L,valid,571,coniglio,right_mismatch,34.79718367,2021-12-20T13:11:35.000Z,339220,TRUE,2021-12-20T12:54:13.000Z,word,right,mismatch,1,10.416666666666668
38,244,L,valid,492,mucca,right_mismatch,34.79718367,2021-12-20T13:11:35.000Z,339220,TRUE,2021-12-20T12:54:13.000Z,word,right,mismatch,1,10.416666666666668
65,252,L,valid,479,telefono,right_mismatch,34.79718367,2021-12-20T13:11:35.000Z,339220,TRUE,2021-12-20T12:54:13.000Z,word,right,mismatch,1,10.416666666666668
71,169,A,valid,589,pistola,left_mismatch,34.79718367,2021-12-20T13:11:35.000Z,339220,TRUE,2021-12-20T12:54:13.000Z,word,left,mismatch,1,10.416666666666668
73,254,L,valid,421,uva,right_mismatch,34.79718367,2021-12-20T13:11:35.000Z,339220,TRUE,2021-12-20T12:54:13.000Z,word,right,mismatch,1,10.416666666666668
85,248,L,valid,655,pomodoro,right_mismatch,34.79718367,2021-12-20T13:11:35.000Z,339220,TRUE,2021-12-20T12:54:13.000Z,word,right,mismatch,1,10.416666666666668
89,165,A,valid,533,melone,left_mismatch,34.79718367,2021-12-20T13:11:35.000Z,339220,TRUE,2021-12-20T12:54:13.000Z,word,left,mismatch,1,10.416666666666668
105,241,L,valid,418,frullatore,right_mismatch,34.79718367,2021-12-20T13:11:35.000Z,339220,TRUE,2021-12-20T12:54:13.000Z,word,right,mismatch,1,10.416666666666668
109,243,L,valid,472,melone,right_mismatch,34.79718367,2021-12-20T13:11:35.000Z,339220,TRUE,2021-12-20T12:54:13.000Z,word,right,mismatch,1,10.416666666666668
110,253,L,valid,475,termometro,right_mismatch,34.79718367,2021-12-20T13:11:35.000Z,339220,TRUE,2021-12-20T12:54:13.000Z,word,right,mismatch,1,10.416666666666668
126,164,A,valid,447,mandorla,left_mismatch,34.79718367,2021-12-20T13:11:35.000Z,339220,TRUE,2021-12-20T12:54:13.000Z,word,left,mismatch,1,10.416666666666668
132,237,L,valid,372,cane,right_mismatch,34.79718367,2021-12-20T13:11:35.000Z,339220,TRUE,2021-12-20T12:54:13.000Z,word,right,mismatch,1,10.416666666666668
NA,NA,NA,NA,NA,NA,NA,NA,NA,NA,NA,NA,NA,NA,NA,NA,NA
NA,NA,NA,NA,NA,NA,NA,NA,NA,NA,NA,NA,NA,NA,NA,NA,NA
NA,NA,NA,NA,NA,NA,NA,NA,NA,NA,NA,NA,NA,NA,NA,NA,NA
10,60,A,invalid,535,2006,left_match,17.69038995,2021-12-20T13:16:35.000Z,339221,TRUE,2021-12-20T12:54:14.000Z,non-word,left,match,1,11.11111111111111
30,140,L,invalid,483,2013,right_match,17.69038995,2021-12-20T13:16:35.000Z,339221,TRUE,2021-12-20T12:54:14.000Z,non-word,right,match,1,11.11111111111111
34,69,A,invalid,598,2034,left_match,17.69038995,2021-12-20T13:16:35.000Z,339221,TRUE,2021-12-20T12:54:14.000Z,non-word,left,match,1,11.11111111111111
36,149,L,invalid,500,2037,right_match,17.69038995,2021-12-20T13:16:35.000Z,339221,TRUE,2021-12-20T12:54:14.000Z,non-word,right,match,1,11.11111111111111
57,152,L,invalid,493,2044,right_match,17.69038995,2021-12-20T13:16:35.000Z,339221,TRUE,2021-12-20T12:54:14.000Z,non-word,right,match,1,11.11111111111111
62,146,L,invalid,498,2030,right_match,17.69038995,2021-12-20T13:16:35.000Z,339221,TRUE,2021-12-20T12:54:14.000Z,non-word,right,match,1,11.11111111111111
78,66,A,invalid,514,2024,left_match,17.69038995,2021-12-20T13:16:35.000Z,339221,TRUE,2021-12-20T12:54:14.000Z,non-word,left,match,1,11.11111111111111
85,61,A,invalid,518,2010,left_match,17.69038995,2021-12-20T13:16:35.000Z,339221,TRUE,2021-12-20T12:54:14.000Z,non-word,left,match,1,11.11111111111111
95,70,A,invalid,496,2036,left_match,17.69038995,2021-12-20T13:16:35.000Z,339221,TRUE,2021-12-20T12:54:14.000Z,non-word,left,match,1,11.11111111111111
98,76,A,invalid,530,2052,left_match,17.69038995,2021-12-20T13:16:35.000Z,339221,TRUE,2021-12-20T12:54:14.000Z,non-word,left,match,1,11.11111111111111
99,142,L,invalid,466,2019,right_match,17.69038995,2021-12-20T13:16:35.000Z,339221,TRUE,2021-12-20T12:54:14.000Z,non-word,right,match,1,11.11111111111111
100,150,L,invalid,503,2039,right_match,17.69038995,2021-12-20T13:16:35.000Z,339221,TRUE,2021-12-20T12:54:14.000Z,non-word,right,match,1,11.11111111111111
101,77,A,invalid,503,2058,left_match,17.69038995,2021-12-20T13:16:35.000Z,339221,TRUE,2021-12-20T12:54:14.000Z,non-word,left,match,1,11.11111111111111
126,144,L,invalid,476,2024,right_match,17.69038995,2021-12-20T13:16:35.000Z,339221,TRUE,2021-12-20T12:54:14.000Z,non-word,right,match,1,11.11111111111111
130,138,L,invalid,505,2006,right_match,17.69038995,2021-12-20T13:16:35.000Z,339221,TRUE,2021-12-20T12:54:14.000Z,non-word,right,match,1,11.11111111111111
142,148,L,invalid,506,2036,right_match,17.69038995,2021-12-20T13:16:35.000Z,339221,TRUE,2021-12-20T12:54:14.000Z,non-word,right,match,1,11.11111111111111
1,57,A,invalid,732,telefono,left_match,17.69038995,2021-12-20T13:16:35.000Z,339221,TRUE,2021-12-20T12:54:14.000Z,word,left,match,1,11.805555555555555
5,44,A,invalid,489,chiave,left_match,17.69038995,2021-12-20T13:16:35.000Z,339221,TRUE,2021-12-20T12:54:14.000Z,word,left,match,1,11.805555555555555
16,55,A,invalid,473,tartaruga,left_match,17.69038995,2021-12-20T13:16:35.000Z,339221,TRUE,2021-12-20T12:54:14.000Z,word,left,match,1,11.805555555555555
17,128,L,invalid,484,occhiali,right_match,17.69038995,2021-12-20T13:16:35.000Z,339221,TRUE,2021-12-20T12:54:14.000Z,word,right,match,1,11.805555555555555
19,45,A,invalid,487,coniglio,left_match,17.69038995,2021-12-20T13:16:35.000Z,339221,TRUE,2021-12-20T12:54:14.000Z,word,left,match,1,11.805555555555555
20,135,L,invalid,485,telefono,right_match,17.69038995,2021-12-20T13:16:35.000Z,339221,TRUE,2021-12-20T12:54:14.000Z,word,right,match,1,11.805555555555555
39,48,A,invalid,603,melone,left_match,17.69038995,2021-12-20T13:16:35.000Z,339221,TRUE,2021-12-20T12:54:14.000Z,word,left,match,1,11.805555555555555
43,136,L,invalid,631,termometro,right_match,17.69038995,2021-12-20T13:16:35.000Z,339221,TRUE,2021-12-20T12:54:14.000Z,word,right,match,1,11.805555555555555
47,119,L,invalid,500,bicchiere,right_match,17.69038995,2021-12-20T13:16:35.000Z,339221,TRUE,2021-12-20T12:54:14.000Z,word,right,match,1,11.805555555555555
51,125,L,invalid,467,mandorla,right_match,17.69038995,2021-12-20T13:16:35.000Z,339221,TRUE,2021-12-20T12:54:14.000Z,word,right,match,1,11.805555555555555
55,133,L,invalid,482,tartaruga,right_match,17.69038995,2021-12-20T13:16:35.000Z,339221,TRUE,2021-12-20T12:54:14.000Z,word,right,match,1,11.805555555555555
66,130,L,invalid,468,pistola,right_match,17.69038995,2021-12-20T13:16:35.000Z,339221,TRUE,2021-12-20T12:54:14.000Z,word,right,match,1,11.805555555555555
71,121,L,invalid,477,cervo,right_match,17.69038995,2021-12-20T13:16:35.000Z,339221,TRUE,2021-12-20T12:54:14.000Z,word,right,match,1,11.805555555555555
93,131,L,invalid,511,pomodoro,right_match,17.69038995,2021-12-20T13:16:35.000Z,339221,TRUE,2021-12-20T12:54:14.000Z,word,right,match,1,11.805555555555555
104,46,A,invalid,720,frullatore,left_match,17.69038995,2021-12-20T13:16:35.000Z,339221,TRUE,2021-12-20T12:54:14.000Z,word,left,match,1,11.805555555555555
124,129,L,invalid,609,pinza,right_match,17.69038995,2021-12-20T13:16:35.000Z,339221,TRUE,2021-12-20T12:54:14.000Z,word,right,match,1,11.805555555555555
143,58,A,invalid,499,termometro,left_match,17.69038995,2021-12-20T13:16:35.000Z,339221,TRUE,2021-12-20T12:54:14.000Z,word,left,match,1,11.805555555555555
2,220,A,invalid,515,2019,left_mismatch,17.69038995,2021-12-20T13:16:35.000Z,339221,TRUE,2021-12-20T12:54:14.000Z,non-word,left,mismatch,1,15.972222222222221
12,230,A,invalid,486,2044,left_mismatch,17.69038995,2021-12-20T13:16:35.000Z,339221,TRUE,2021-12-20T12:54:14.000Z,non-word,left,mismatch,1,15.972222222222221
41,232,A,invalid,498,2052,left_mismatch,17.69038995,2021-12-20T13:16:35.000Z,339221,TRUE,2021-12-20T12:54:14.000Z,non-word,left,mismatch,1,15.972222222222221
50,307,L,invalid,505,2040,right_mismatch,17.69038995,2021-12-20T13:16:35.000Z,339221,TRUE,2021-12-20T12:54:14.000Z,non-word,right,mismatch,1,15.972222222222221
52,298,L,invalid,469,2019,right_mismatch,17.69038995,2021-12-20T13:16:35.000Z,339221,TRUE,2021-12-20T12:54:14.000Z,non-word,right,mismatch,1,15.972222222222221
56,301,L,invalid,500,2026,right_mismatch,17.69038995,2021-12-20T13:16:35.000Z,339221,TRUE,2021-12-20T12:54:14.000Z,non-word,right,mismatch,1,15.972222222222221
60,219,A,invalid,602,2017,left_mismatch,17.69038995,2021-12-20T13:16:35.000Z,339221,TRUE,2021-12-20T12:54:14.000Z,non-word,left,mismatch,1,15.972222222222221
67,312,L,invalid,513,2059,right_mismatch,17.69038995,2021-12-20T13:16:35.000Z,339221,TRUE,2021-12-20T12:54:14.000Z,non-word,right,mismatch,1,15.972222222222221
72,302,L,invalid,530,2030,right_mismatch,17.69038995,2021-12-20T13:16:35.000Z,339221,TRUE,2021-12-20T12:54:14.000Z,non-word,right,mismatch,1,15.972222222222221
76,303,L,invalid,663,2034,right_mismatch,17.69038995,2021-12-20T13:16:35.000Z,339221,TRUE,2021-12-20T12:54:14.000Z,non-word,right,mismatch,1,15.972222222222221
82,306,L,invalid,520,2039,right_mismatch,17.69038995,2021-12-20T13:16:35.000Z,339221,TRUE,2021-12-20T12:54:14.000Z,non-word,right,mismatch,1,15.972222222222221
83,295,L,invalid,497,2010,right_mismatch,17.69038995,2021-12-20T13:16:35.000Z,339221,TRUE,2021-12-20T12:54:14.000Z,non-word,right,mismatch,1,15.972222222222221
86,229,A,invalid,414,2040,left_mismatch,17.69038995,2021-12-20T13:16:35.000Z,339221,TRUE,2021-12-20T12:54:14.000Z,non-word,left,mismatch,1,15.972222222222221
87,226,A,invalid,502,2036,left_mismatch,17.69038995,2021-12-20T13:16:35.000Z,339221,TRUE,2021-12-20T12:54:14.000Z,non-word,left,mismatch,1,15.972222222222221
92,216,A,invalid,583,2006,left_mismatch,17.69038995,2021-12-20T13:16:35.000Z,339221,TRUE,2021-12-20T12:54:14.000Z,non-word,left,mismatch,1,15.972222222222221
108,294,L,invalid,509,2006,right_mismatch,17.69038995,2021-12-20T13:16:35.000Z,339221,TRUE,2021-12-20T12:54:14.000Z,non-word,right,mismatch,1,15.972222222222221
111,223,A,invalid,496,2026,left_mismatch,17.69038995,2021-12-20T13:16:35.000Z,339221,TRUE,2021-12-20T12:54:14.000Z,non-word,left,mismatch,1,15.972222222222221
119,305,L,invalid,478,2037,right_mismatch,17.69038995,2021-12-20T13:16:35.000Z,339221,TRUE,2021-12-20T12:54:14.000Z,non-word,right,mismatch,1,15.972222222222221
120,300,L,invalid,532,2024,right_mismatch,17.69038995,2021-12-20T13:16:35.000Z,339221,TRUE,2021-12-20T12:54:14.000Z,non-word,right,mismatch,1,15.972222222222221
123,309,L,invalid,507,2049,right_mismatch,17.69038995,2021-12-20T13:16:35.000Z,339221,TRUE,2021-12-20T12:54:14.000Z,non-word,right,mismatch,1,15.972222222222221
129,299,L,invalid,505,2023,right_mismatch,17.69038995,2021-12-20T13:16:35.000Z,339221,TRUE,2021-12-20T12:54:14.000Z,non-word,right,mismatch,1,15.972222222222221
139,296,L,invalid,582,2013,right_mismatch,17.69038995,2021-12-20T13:16:35.000Z,339221,TRUE,2021-12-20T12:54:14.000Z,non-word,right,mismatch,1,15.972222222222221
141,224,A,invalid,474,2030,left_mismatch,17.69038995,2021-12-20T13:16:35.000Z,339221,TRUE,2021-12-20T12:54:14.000Z,non-word,left,mismatch,1,15.972222222222221
4,200,A,invalid,485,chiave,left_mismatch,17.69038995,2021-12-20T13:16:35.000Z,339221,TRUE,2021-12-20T12:54:14.000Z,word,left,mismatch,1,11.805555555555555
15,290,L,invalid,484,telecomando,right_mismatch,17.69038995,2021-12-20T13:16:35.000Z,339221,TRUE,2021-12-20T12:54:14.000Z,word,right,mismatch,1,11.805555555555555
21,287,L,invalid,486,pomodoro,right_mismatch,17.69038995,2021-12-20T13:16:35.000Z,339221,TRUE,2021-12-20T12:54:14.000Z,word,right,mismatch,1,11.805555555555555
27,281,L,invalid,486,mandorla,right_mismatch,17.69038995,2021-12-20T13:16:35.000Z,339221,TRUE,2021-12-20T12:54:14.000Z,word,right,mismatch,1,11.805555555555555
28,278,L,invalid,464,chiave,right_mismatch,17.69038995,2021-12-20T13:16:35.000Z,339221,TRUE,2021-12-20T12:54:14.000Z,word,right,mismatch,1,11.805555555555555
31,198,A,invalid,517,cane,left_mismatch,17.69038995,2021-12-20T13:16:35.000Z,339221,TRUE,2021-12-20T12:54:14.000Z,word,left,mismatch,1,11.805555555555555
33,214,A,invalid,498,termometro,left_mismatch,17.69038995,2021-12-20T13:16:35.000Z,339221,TRUE,2021-12-20T12:54:14.000Z,word,left,mismatch,1,11.805555555555555
44,211,A,invalid,383,tartaruga,left_mismatch,17.69038995,2021-12-20T13:16:35.000Z,339221,TRUE,2021-12-20T12:54:14.000Z,word,left,mismatch,1,11.805555555555555
48,286,L,invalid,493,pistola,right_mismatch,17.69038995,2021-12-20T13:16:35.000Z,339221,TRUE,2021-12-20T12:54:14.000Z,word,right,mismatch,1,11.805555555555555
54,199,A,invalid,373,cervo,left_mismatch,17.69038995,2021-12-20T13:16:35.000Z,339221,TRUE,2021-12-20T12:54:14.000Z,word,left,mismatch,1,11.805555555555555
69,213,A,invalid,476,telefono,left_mismatch,17.69038995,2021-12-20T13:16:35.000Z,339221,TRUE,2021-12-20T12:54:14.000Z,word,left,mismatch,1,11.805555555555555
88,284,L,invalid,463,occhiali,right_mismatch,17.69038995,2021-12-20T13:16:35.000Z,339221,TRUE,2021-12-20T12:54:14.000Z,word,right,mismatch,1,11.805555555555555
94,274,L,invalid,527,banana,right_mismatch,17.69038995,2021-12-20T13:16:35.000Z,339221,TRUE,2021-12-20T12:54:14.000Z,word,right,mismatch,1,11.805555555555555
106,202,A,invalid,481,frullatore,left_mismatch,17.69038995,2021-12-20T13:16:35.000Z,339221,TRUE,2021-12-20T12:54:14.000Z,word,left,mismatch,1,11.805555555555555
112,203,A,invalid,523,mandorla,left_mismatch,17.69038995,2021-12-20T13:16:35.000Z,339221,TRUE,2021-12-20T12:54:14.000Z,word,left,mismatch,1,11.805555555555555
125,293,L,invalid,480,uva,right_mismatch,17.69038995,2021-12-20T13:16:35.000Z,339221,TRUE,2021-12-20T12:54:14.000Z,word,right,mismatch,1,11.805555555555555
137,275,L,invalid,505,bicchiere,right_mismatch,17.69038995,2021-12-20T13:16:35.000Z,339221,TRUE,2021-12-20T12:54:14.000Z,word,right,mismatch,1,11.805555555555555
3,111,L,valid,646,2039,right_match,17.69038995,2021-12-20T13:16:35.000Z,339221,TRUE,2021-12-20T12:54:14.000Z,non-word,right,match,1,11.805555555555555
6,103,L,valid,857,2019,right_match,17.69038995,2021-12-20T13:16:35.000Z,339221,TRUE,2021-12-20T12:54:14.000Z,non-word,right,match,1,11.805555555555555
42,101,L,valid,615,2013,right_match,17.69038995,2021-12-20T13:16:35.000Z,339221,TRUE,2021-12-20T12:54:14.000Z,non-word,right,match,1,11.805555555555555
45,25,A,valid,358,2019,left_match,17.69038995,2021-12-20T13:16:35.000Z,339221,TRUE,2021-12-20T12:54:14.000Z,non-word,left,match,1,11.805555555555555
46,110,L,valid,477,2037,right_match,17.69038995,2021-12-20T13:16:35.000Z,339221,TRUE,2021-12-20T12:54:14.000Z,non-word,right,match,1,11.805555555555555
58,28,A,valid,410,2026,left_match,17.69038995,2021-12-20T13:16:35.000Z,339221,TRUE,2021-12-20T12:54:14.000Z,non-word,left,match,1,11.805555555555555
63,102,L,valid,609,2017,right_match,17.69038995,2021-12-20T13:16:35.000Z,339221,TRUE,2021-12-20T12:54:14.000Z,non-word,right,match,1,11.805555555555555
91,21,A,valid,388,2006,left_match,17.69038995,2021-12-20T13:16:35.000Z,339221,TRUE,2021-12-20T12:54:14.000Z,non-word,left,match,1,11.805555555555555
96,99,L,valid,496,2006,right_match,17.69038995,2021-12-20T13:16:35.000Z,339221,TRUE,2021-12-20T12:54:14.000Z,non-word,right,match,1,11.805555555555555
105,39,A,valid,497,2059,left_match,17.69038995,2021-12-20T13:16:35.000Z,339221,TRUE,2021-12-20T12:54:14.000Z,non-word,left,match,1,11.805555555555555
107,106,L,valid,499,2026,right_match,17.69038995,2021-12-20T13:16:35.000Z,339221,TRUE,2021-12-20T12:54:14.000Z,non-word,right,match,1,11.805555555555555
110,115,L,valid,460,2052,right_match,17.69038995,2021-12-20T13:16:35.000Z,339221,TRUE,2021-12-20T12:54:14.000Z,non-word,right,match,1,11.805555555555555
116,33,A,valid,524,2039,left_match,17.69038995,2021-12-20T13:16:35.000Z,339221,TRUE,2021-12-20T12:54:14.000Z,non-word,left,match,1,11.805555555555555
131,108,L,valid,509,2034,right_match,17.69038995,2021-12-20T13:16:35.000Z,339221,TRUE,2021-12-20T12:54:14.000Z,non-word,right,match,1,11.805555555555555
132,114,L,valid,512,2049,right_match,17.69038995,2021-12-20T13:16:35.000Z,339221,TRUE,2021-12-20T12:54:14.000Z,non-word,right,match,1,11.805555555555555
135,24,A,valid,593,2017,left_match,17.69038995,2021-12-20T13:16:35.000Z,339221,TRUE,2021-12-20T12:54:14.000Z,non-word,left,match,1,11.805555555555555
140,30,A,valid,512,2034,left_match,17.69038995,2021-12-20T13:16:35.000Z,339221,TRUE,2021-12-20T12:54:14.000Z,non-word,left,match,1,11.805555555555555
11,80,L,valid,379,bicchiere,right_match,17.69038995,2021-12-20T13:16:35.000Z,339221,TRUE,2021-12-20T12:54:14.000Z,word,right,match,1,11.805555555555555
13,15,A,valid,493,rasoio,left_match,17.69038995,2021-12-20T13:16:35.000Z,339221,TRUE,2021-12-20T12:54:14.000Z,word,left,match,1,11.805555555555555
26,92,L,valid,458,pomodoro,right_match,17.69038995,2021-12-20T13:16:35.000Z,339221,TRUE,2021-12-20T12:54:14.000Z,word,right,match,1,11.805555555555555
37,14,A,valid,500,pomodoro,left_match,17.69038995,2021-12-20T13:16:35.000Z,339221,TRUE,2021-12-20T12:54:14.000Z,word,left,match,1,11.805555555555555
61,88,L,valid,601,mucca,right_match,17.69038995,2021-12-20T13:16:35.000Z,339221,TRUE,2021-12-20T12:54:14.000Z,word,right,match,1,11.805555555555555
64,87,L,valid,368,melone,right_match,17.69038995,2021-12-20T13:16:35.000Z,339221,TRUE,2021-12-20T12:54:14.000Z,word,right,match,1,11.805555555555555
70,93,L,valid,597,rasoio,right_match,17.69038995,2021-12-20T13:16:35.000Z,339221,TRUE,2021-12-20T12:54:14.000Z,word,right,match,1,11.805555555555555
77,10,A,valid,404,mucca,left_match,17.69038995,2021-12-20T13:16:35.000Z,339221,TRUE,2021-12-20T12:54:14.000Z,word,left,match,1,11.805555555555555
84,7,A,valid,514,frullatore,left_match,17.69038995,2021-12-20T13:16:35.000Z,339221,TRUE,2021-12-20T12:54:14.000Z,word,left,match,1,11.805555555555555
102,6,A,valid,525,coniglio,left_match,17.69038995,2021-12-20T13:16:35.000Z,339221,TRUE,2021-12-20T12:54:14.000Z,word,left,match,1,11.805555555555555
109,4,A,valid,384,cervo,left_match,17.69038995,2021-12-20T13:16:35.000Z,339221,TRUE,2021-12-20T12:54:14.000Z,word,left,match,1,11.805555555555555
114,3,A,valid,480,cane,left_match,17.69038995,2021-12-20T13:16:35.000Z,339221,TRUE,2021-12-20T12:54:14.000Z,word,left,match,1,11.805555555555555
121,84,L,valid,495,coniglio,right_match,17.69038995,2021-12-20T13:16:35.000Z,339221,TRUE,2021-12-20T12:54:14.000Z,word,right,match,1,11.805555555555555
122,85,L,valid,565,frullatore,right_match,17.69038995,2021-12-20T13:16:35.000Z,339221,TRUE,2021-12-20T12:54:14.000Z,word,right,match,1,11.805555555555555
136,16,A,valid,418,tartaruga,left_match,17.69038995,2021-12-20T13:16:35.000Z,339221,TRUE,2021-12-20T12:54:14.000Z,word,left,match,1,11.805555555555555
138,18,A,valid,416,telefono,left_match,17.69038995,2021-12-20T13:16:35.000Z,339221,TRUE,2021-12-20T12:54:14.000Z,word,left,match,1,11.805555555555555
144,86,L,valid,483,mandorla,right_match,17.69038995,2021-12-20T13:16:35.000Z,339221,TRUE,2021-12-20T12:54:14.000Z,word,right,match,1,11.805555555555555
8,270,L,valid,495,2049,right_mismatch,17.69038995,2021-12-20T13:16:35.000Z,339221,TRUE,2021-12-20T12:54:14.000Z,non-word,right,mismatch,1,13.88888888888889
18,266,L,valid,529,2037,right_mismatch,17.69038995,2021-12-20T13:16:35.000Z,339221,TRUE,2021-12-20T12:54:14.000Z,non-word,right,mismatch,1,13.88888888888889
22,263,L,valid,496,2030,right_mismatch,17.69038995,2021-12-20T13:16:35.000Z,339221,TRUE,2021-12-20T12:54:14.000Z,non-word,right,mismatch,1,13.88888888888889
23,194,A,valid,452,2058,left_mismatch,17.69038995,2021-12-20T13:16:35.000Z,339221,TRUE,2021-12-20T12:54:14.000Z,non-word,left,mismatch,1,13.88888888888889
24,187,A,valid,582,2036,left_mismatch,17.69038995,2021-12-20T13:16:35.000Z,339221,TRUE,2021-12-20T12:54:14.000Z,non-word,left,mismatch,1,13.88888888888889
29,188,A,valid,482,2037,left_mismatch,17.69038995,2021-12-20T13:16:35.000Z,339221,TRUE,2021-12-20T12:54:14.000Z,non-word,left,mismatch,1,13.88888888888889
32,264,L,valid,462,2034,right_mismatch,17.69038995,2021-12-20T13:16:35.000Z,339221,TRUE,2021-12-20T12:54:14.000Z,non-word,right,mismatch,1,13.88888888888889
35,182,A,valid,499,2023,left_mismatch,17.69038995,2021-12-20T13:16:35.000Z,339221,TRUE,2021-12-20T12:54:14.000Z,non-word,left,mismatch,1,13.88888888888889
49,255,L,valid,489,2006,right_mismatch,17.69038995,2021-12-20T13:16:35.000Z,339221,TRUE,2021-12-20T12:54:14.000Z,non-word,right,mismatch,1,13.88888888888889
68,261,L,valid,498,2024,right_mismatch,17.69038995,2021-12-20T13:16:35.000Z,339221,TRUE,2021-12-20T12:54:14.000Z,non-word,right,mismatch,1,13.88888888888889
73,189,A,valid,499,2039,left_mismatch,17.69038995,2021-12-20T13:16:35.000Z,339221,TRUE,2021-12-20T12:54:14.000Z,non-word,left,mismatch,1,13.88888888888889
75,265,L,valid,508,2036,right_mismatch,17.69038995,2021-12-20T13:16:35.000Z,339221,TRUE,2021-12-20T12:54:14.000Z,non-word,right,mismatch,1,13.88888888888889
79,256,L,valid,490,2010,right_mismatch,17.69038995,2021-12-20T13:16:35.000Z,339221,TRUE,2021-12-20T12:54:14.000Z,non-word,right,mismatch,1,13.88888888888889
81,257,L,valid,414,2013,right_mismatch,17.69038995,2021-12-20T13:16:35.000Z,339221,TRUE,2021-12-20T12:54:14.000Z,non-word,right,mismatch,1,13.88888888888889
90,260,L,valid,501,2023,right_mismatch,17.69038995,2021-12-20T13:16:35.000Z,339221,TRUE,2021-12-20T12:54:14.000Z,non-word,right,mismatch,1,13.88888888888889
115,191,A,valid,515,2044,left_mismatch,17.69038995,2021-12-20T13:16:35.000Z,339221,TRUE,2021-12-20T12:54:14.000Z,non-word,left,mismatch,1,13.88888888888889
117,262,L,valid,527,2026,right_mismatch,17.69038995,2021-12-20T13:16:35.000Z,339221,TRUE,2021-12-20T12:54:14.000Z,non-word,right,mismatch,1,13.88888888888889
118,181,A,valid,508,2019,left_mismatch,17.69038995,2021-12-20T13:16:35.000Z,339221,TRUE,2021-12-20T12:54:14.000Z,non-word,left,mismatch,1,13.88888888888889
127,185,A,valid,511,2030,left_mismatch,17.69038995,2021-12-20T13:16:35.000Z,339221,TRUE,2021-12-20T12:54:14.000Z,non-word,left,mismatch,1,13.88888888888889
133,258,L,valid,535,2017,right_mismatch,17.69038995,2021-12-20T13:16:35.000Z,339221,TRUE,2021-12-20T12:54:14.000Z,non-word,right,mismatch,1,13.88888888888889
7,158,A,valid,501,bicchiere,left_mismatch,17.69038995,2021-12-20T13:16:35.000Z,339221,TRUE,2021-12-20T12:54:14.000Z,word,left,mismatch,1,11.805555555555555
9,173,A,valid,589,telecomando,left_mismatch,17.69038995,2021-12-20T13:16:35.000Z,339221,TRUE,2021-12-20T12:54:14.000Z,word,left,mismatch,1,11.805555555555555
14,172,A,valid,466,tartaruga,left_mismatch,17.69038995,2021-12-20T13:16:35.000Z,339221,TRUE,2021-12-20T12:54:14.000Z,word,left,mismatch,1,11.805555555555555
25,174,A,valid,500,telefono,left_mismatch,17.69038995,2021-12-20T13:16:35.000Z,339221,TRUE,2021-12-20T12:54:14.000Z,word,left,mismatch,1,11.805555555555555
38,251,L,valid,368,telecomando,right_mismatch,17.69038995,2021-12-20T13:16:35.000Z,339221,TRUE,2021-12-20T12:54:14.000Z,word,right,mismatch,1,11.805555555555555
40,162,A,valid,381,coniglio,left_mismatch,17.69038995,2021-12-20T13:16:35.000Z,339221,TRUE,2021-12-20T12:54:14.000Z,word,left,mismatch,1,11.805555555555555
53,163,A,valid,385,frullatore,left_mismatch,17.69038995,2021-12-20T13:16:35.000Z,339221,TRUE,2021-12-20T12:54:14.000Z,word,left,mismatch,1,11.805555555555555
59,248,L,valid,383,pomodoro,right_mismatch,17.69038995,2021-12-20T13:16:35.000Z,339221,TRUE,2021-12-20T12:54:14.000Z,word,right,mismatch,1,11.805555555555555
65,166,A,valid,491,mucca,left_mismatch,17.69038995,2021-12-20T13:16:35.000Z,339221,TRUE,2021-12-20T12:54:14.000Z,word,left,mismatch,1,11.805555555555555
74,176,A,valid,488,uva,left_mismatch,17.69038995,2021-12-20T13:16:35.000Z,339221,TRUE,2021-12-20T12:54:14.000Z,word,left,mismatch,1,11.805555555555555
80,245,L,valid,486,occhiali,right_mismatch,17.69038995,2021-12-20T13:16:35.000Z,339221,TRUE,2021-12-20T12:54:14.000Z,word,right,mismatch,1,11.805555555555555
89,242,L,valid,481,mandorla,right_mismatch,17.69038995,2021-12-20T13:16:35.000Z,339221,TRUE,2021-12-20T12:54:14.000Z,word,right,mismatch,1,11.805555555555555
97,159,A,valid,494,cane,left_mismatch,17.69038995,2021-12-20T13:16:35.000Z,339221,TRUE,2021-12-20T12:54:14.000Z,word,left,mismatch,1,11.805555555555555
103,175,A,valid,489,termometro,left_mismatch,17.69038995,2021-12-20T13:16:35.000Z,339221,TRUE,2021-12-20T12:54:14.000Z,word,left,mismatch,1,11.805555555555555
113,169,A,valid,468,pistola,left_mismatch,17.69038995,2021-12-20T13:16:35.000Z,339221,TRUE,2021-12-20T12:54:14.000Z,word,left,mismatch,1,11.805555555555555
128,240,L,valid,492,coniglio,right_mismatch,17.69038995,2021-12-20T13:16:35.000Z,339221,TRUE,2021-12-20T12:54:14.000Z,word,right,mismatch,1,11.805555555555555
134,252,L,valid,485,telefono,right_mismatch,17.69038995,2021-12-20T13:16:35.000Z,339221,TRUE,2021-12-20T12:54:14.000Z,word,right,mismatch,1,11.805555555555555
NA,NA,NA,NA,NA,NA,NA,NA,NA,NA,NA,NA,NA,NA,NA,NA,NA
NA,NA,NA,NA,NA,NA,NA,NA,NA,NA,NA,NA,NA,NA,NA,NA,NA
NA,NA,NA,NA,NA,NA,NA,NA,NA,NA,NA,NA,NA,NA,NA,NA,NA
NA,NA,NA,NA,NA,NA,NA,NA,NA,NA,NA,NA,NA,NA,NA,NA,NA
NA,NA,NA,NA,NA,NA,NA,NA,NA,NA,NA,NA,NA,NA,NA,NA,NA
NA,NA,NA,NA,NA,NA,NA,NA,NA,NA,NA,NA,NA,NA,NA,NA,NA
20,145,L,invalid,435,2026,right_match,53.02989086,2021-12-20T13:13:42.000Z,339234,TRUE,2021-12-20T12:55:27.000Z,non-word,right,match,1,11.805555555555555
22,64,A,invalid,439,2019,left_match,53.02989086,2021-12-20T13:13:42.000Z,339234,TRUE,2021-12-20T12:55:27.000Z,non-word,left,match,1,11.805555555555555
31,66,A,invalid,567,2024,left_match,53.02989086,2021-12-20T13:13:42.000Z,339234,TRUE,2021-12-20T12:55:27.000Z,non-word,left,match,1,11.805555555555555
32,150,L,invalid,499,2039,right_match,53.02989086,2021-12-20T13:13:42.000Z,339234,TRUE,2021-12-20T12:55:27.000Z,non-word,right,match,1,11.805555555555555
37,67,A,invalid,656,2026,left_match,53.02989086,2021-12-20T13:13:42.000Z,339234,TRUE,2021-12-20T12:55:27.000Z,non-word,left,match,1,11.805555555555555
40,60,A,invalid,494,2006,left_match,53.02989086,2021-12-20T13:13:42.000Z,339234,TRUE,2021-12-20T12:55:27.000Z,non-word,left,match,1,11.805555555555555
48,70,A,invalid,508,2036,left_match,53.02989086,2021-12-20T13:13:42.000Z,339234,TRUE,2021-12-20T12:55:27.000Z,non-word,left,match,1,11.805555555555555
58,68,A,invalid,506,2030,left_match,53.02989086,2021-12-20T13:13:42.000Z,339234,TRUE,2021-12-20T12:55:27.000Z,non-word,left,match,1,11.805555555555555
63,140,L,invalid,492,2013,right_match,53.02989086,2021-12-20T13:13:42.000Z,339234,TRUE,2021-12-20T12:55:27.000Z,non-word,right,match,1,11.805555555555555
90,147,L,invalid,486,2034,right_match,53.02989086,2021-12-20T13:13:42.000Z,339234,TRUE,2021-12-20T12:55:27.000Z,non-word,right,match,1,11.805555555555555
92,152,L,invalid,470,2044,right_match,53.02989086,2021-12-20T13:13:42.000Z,339234,TRUE,2021-12-20T12:55:27.000Z,non-word,right,match,1,11.805555555555555
99,151,L,invalid,564,2040,right_match,53.02989086,2021-12-20T13:13:42.000Z,339234,TRUE,2021-12-20T12:55:27.000Z,non-word,right,match,1,11.805555555555555
100,71,A,invalid,408,2037,left_match,53.02989086,2021-12-20T13:13:42.000Z,339234,TRUE,2021-12-20T12:55:27.000Z,non-word,left,match,1,11.805555555555555
116,77,A,invalid,366,2058,left_match,53.02989086,2021-12-20T13:13:42.000Z,339234,TRUE,2021-12-20T12:55:27.000Z,non-word,left,match,1,11.805555555555555
117,69,A,invalid,416,2034,left_match,53.02989086,2021-12-20T13:13:42.000Z,339234,TRUE,2021-12-20T12:55:27.000Z,non-word,left,match,1,11.805555555555555
120,139,L,invalid,493,2010,right_match,53.02989086,2021-12-20T13:13:42.000Z,339234,TRUE,2021-12-20T12:55:27.000Z,non-word,right,match,1,11.805555555555555
135,75,A,invalid,502,2049,left_match,53.02989086,2021-12-20T13:13:42.000Z,339234,TRUE,2021-12-20T12:55:27.000Z,non-word,left,match,1,11.805555555555555
1,125,L,invalid,507,mandorla,right_match,53.02989086,2021-12-20T13:13:42.000Z,339234,TRUE,2021-12-20T12:55:27.000Z,word,right,match,1,15.972222222222221
2,52,A,invalid,347,pistola,left_match,53.02989086,2021-12-20T13:13:42.000Z,339234,TRUE,2021-12-20T12:55:27.000Z,word,left,match,1,15.972222222222221
7,129,L,invalid,564,pinza,right_match,53.02989086,2021-12-20T13:13:42.000Z,339234,TRUE,2021-12-20T12:55:27.000Z,word,right,match,1,15.972222222222221
8,49,A,invalid,499,mucca,left_match,53.02989086,2021-12-20T13:13:42.000Z,339234,TRUE,2021-12-20T12:55:27.000Z,word,left,match,1,15.972222222222221
17,133,L,invalid,503,tartaruga,right_match,53.02989086,2021-12-20T13:13:42.000Z,339234,TRUE,2021-12-20T12:55:27.000Z,word,right,match,1,15.972222222222221
18,45,A,invalid,466,coniglio,left_match,53.02989086,2021-12-20T13:13:42.000Z,339234,TRUE,2021-12-20T12:55:27.000Z,word,left,match,1,15.972222222222221
19,40,A,invalid,428,banana,left_match,53.02989086,2021-12-20T13:13:42.000Z,339234,TRUE,2021-12-20T12:55:27.000Z,word,left,match,1,15.972222222222221
25,124,L,invalid,510,frullatore,right_match,53.02989086,2021-12-20T13:13:42.000Z,339234,TRUE,2021-12-20T12:55:27.000Z,word,right,match,1,15.972222222222221
27,43,A,invalid,498,cervo,left_match,53.02989086,2021-12-20T13:13:42.000Z,339234,TRUE,2021-12-20T12:55:27.000Z,word,left,match,1,15.972222222222221
28,122,L,invalid,415,chiave,right_match,53.02989086,2021-12-20T13:13:42.000Z,339234,TRUE,2021-12-20T12:55:27.000Z,word,right,match,1,15.972222222222221
33,51,A,invalid,638,pinza,left_match,53.02989086,2021-12-20T13:13:42.000Z,339234,TRUE,2021-12-20T12:55:27.000Z,word,left,match,1,15.972222222222221
78,135,L,invalid,895,telefono,right_match,53.02989086,2021-12-20T13:13:42.000Z,339234,TRUE,2021-12-20T12:55:27.000Z,word,right,match,1,15.972222222222221
80,127,L,invalid,415,mucca,right_match,53.02989086,2021-12-20T13:13:42.000Z,339234,TRUE,2021-12-20T12:55:27.000Z,word,right,match,1,15.972222222222221
85,53,A,invalid,423,pomodoro,left_match,53.02989086,2021-12-20T13:13:42.000Z,339234,TRUE,2021-12-20T12:55:27.000Z,word,left,match,1,15.972222222222221
87,55,A,invalid,490,tartaruga,left_match,53.02989086,2021-12-20T13:13:42.000Z,339234,TRUE,2021-12-20T12:55:27.000Z,word,left,match,1,15.972222222222221
89,42,A,invalid,633,cane,left_match,53.02989086,2021-12-20T13:13:42.000Z,339234,TRUE,2021-12-20T12:55:27.000Z,word,left,match,1,15.972222222222221
101,59,A,invalid,397,uva,left_match,53.02989086,2021-12-20T13:13:42.000Z,339234,TRUE,2021-12-20T12:55:27.000Z,word,left,match,1,15.972222222222221
102,120,L,invalid,417,cane,right_match,53.02989086,2021-12-20T13:13:42.000Z,339234,TRUE,2021-12-20T12:55:27.000Z,word,right,match,1,15.972222222222221
109,134,L,invalid,315,telecomando,right_match,53.02989086,2021-12-20T13:13:42.000Z,339234,TRUE,2021-12-20T12:55:27.000Z,word,right,match,1,15.972222222222221
112,41,L,invalid,172,bicchiere,left_match,53.02989086,2021-12-20T13:13:42.000Z,339234,TRUE,2021-12-20T12:55:27.000Z,word,left,match,0,15.972222222222221
113,48,A,invalid,413,melone,left_match,53.02989086,2021-12-20T13:13:42.000Z,339234,TRUE,2021-12-20T12:55:27.000Z,word,left,match,1,15.972222222222221
126,44,A,invalid,427,chiave,left_match,53.02989086,2021-12-20T13:13:42.000Z,339234,TRUE,2021-12-20T12:55:27.000Z,word,left,match,1,15.972222222222221
127,119,L,invalid,348,bicchiere,right_match,53.02989086,2021-12-20T13:13:42.000Z,339234,TRUE,2021-12-20T12:55:27.000Z,word,right,match,1,15.972222222222221
141,50,A,invalid,415,occhiali,left_match,53.02989086,2021-12-20T13:13:42.000Z,339234,TRUE,2021-12-20T12:55:27.000Z,word,left,match,1,15.972222222222221
5,304,L,invalid,493,2036,right_mismatch,53.02989086,2021-12-20T13:13:42.000Z,339234,TRUE,2021-12-20T12:55:27.000Z,non-word,right,mismatch,1,11.805555555555555
10,220,A,invalid,581,2019,left_mismatch,53.02989086,2021-12-20T13:13:42.000Z,339234,TRUE,2021-12-20T12:55:27.000Z,non-word,left,mismatch,1,11.805555555555555
11,300,L,invalid,664,2024,right_mismatch,53.02989086,2021-12-20T13:13:42.000Z,339234,TRUE,2021-12-20T12:55:27.000Z,non-word,right,mismatch,1,11.805555555555555
13,221,A,invalid,512,2023,left_mismatch,53.02989086,2021-12-20T13:13:42.000Z,339234,TRUE,2021-12-20T12:55:27.000Z,non-word,left,mismatch,1,11.805555555555555
29,305,L,invalid,481,2037,right_mismatch,53.02989086,2021-12-20T13:13:42.000Z,339234,TRUE,2021-12-20T12:55:27.000Z,non-word,right,mismatch,1,11.805555555555555
30,217,A,invalid,418,2010,left_mismatch,53.02989086,2021-12-20T13:13:42.000Z,339234,TRUE,2021-12-20T12:55:27.000Z,non-word,left,mismatch,1,11.805555555555555
35,310,L,invalid,759,2052,right_mismatch,53.02989086,2021-12-20T13:13:42.000Z,339234,TRUE,2021-12-20T12:55:27.000Z,non-word,right,mismatch,1,11.805555555555555
36,228,A,invalid,517,2039,left_mismatch,53.02989086,2021-12-20T13:13:42.000Z,339234,TRUE,2021-12-20T12:55:27.000Z,non-word,left,mismatch,1,11.805555555555555
42,294,L,invalid,482,2006,right_mismatch,53.02989086,2021-12-20T13:13:42.000Z,339234,TRUE,2021-12-20T12:55:27.000Z,non-word,right,mismatch,1,11.805555555555555
44,307,L,invalid,656,2040,right_mismatch,53.02989086,2021-12-20T13:13:42.000Z,339234,TRUE,2021-12-20T12:55:27.000Z,non-word,right,mismatch,1,11.805555555555555
49,303,L,invalid,501,2034,right_mismatch,53.02989086,2021-12-20T13:13:42.000Z,339234,TRUE,2021-12-20T12:55:27.000Z,non-word,right,mismatch,1,11.805555555555555
73,218,A,invalid,571,2013,left_mismatch,53.02989086,2021-12-20T13:13:42.000Z,339234,TRUE,2021-12-20T12:55:27.000Z,non-word,left,mismatch,1,11.805555555555555
91,234,A,invalid,407,2059,left_mismatch,53.02989086,2021-12-20T13:13:42.000Z,339234,TRUE,2021-12-20T12:55:27.000Z,non-word,left,mismatch,1,11.805555555555555
107,306,L,invalid,353,2039,right_mismatch,53.02989086,2021-12-20T13:13:42.000Z,339234,TRUE,2021-12-20T12:55:27.000Z,non-word,right,mismatch,1,11.805555555555555
110,298,L,invalid,430,2019,right_mismatch,53.02989086,2021-12-20T13:13:42.000Z,339234,TRUE,2021-12-20T12:55:27.000Z,non-word,right,mismatch,1,11.805555555555555
118,223,A,invalid,482,2026,left_mismatch,53.02989086,2021-12-20T13:13:42.000Z,339234,TRUE,2021-12-20T12:55:27.000Z,non-word,left,mismatch,1,11.805555555555555
137,309,L,invalid,503,2049,right_mismatch,53.02989086,2021-12-20T13:13:42.000Z,339234,TRUE,2021-12-20T12:55:27.000Z,non-word,right,mismatch,1,11.805555555555555
4,287,L,invalid,415,pomodoro,right_mismatch,53.02989086,2021-12-20T13:13:42.000Z,339234,TRUE,2021-12-20T12:55:27.000Z,word,right,mismatch,1,13.88888888888889
6,292,L,invalid,481,termometro,right_mismatch,53.02989086,2021-12-20T13:13:42.000Z,339234,TRUE,2021-12-20T12:55:27.000Z,word,right,mismatch,1,13.88888888888889
16,276,L,invalid,499,cane,right_mismatch,53.02989086,2021-12-20T13:13:42.000Z,339234,TRUE,2021-12-20T12:55:27.000Z,word,right,mismatch,1,13.88888888888889
21,282,L,invalid,426,melone,right_mismatch,53.02989086,2021-12-20T13:13:42.000Z,339234,TRUE,2021-12-20T12:55:27.000Z,word,right,mismatch,1,13.88888888888889
43,284,L,invalid,336,occhiali,right_mismatch,53.02989086,2021-12-20T13:13:42.000Z,339234,TRUE,2021-12-20T12:55:27.000Z,word,right,mismatch,1,13.88888888888889
52,213,A,invalid,785,telefono,left_mismatch,53.02989086,2021-12-20T13:13:42.000Z,339234,TRUE,2021-12-20T12:55:27.000Z,word,left,mismatch,1,13.88888888888889
56,278,L,invalid,417,chiave,right_mismatch,53.02989086,2021-12-20T13:13:42.000Z,339234,TRUE,2021-12-20T12:55:27.000Z,word,right,mismatch,1,13.88888888888889
57,200,A,invalid,493,chiave,left_mismatch,53.02989086,2021-12-20T13:13:42.000Z,339234,TRUE,2021-12-20T12:55:27.000Z,word,left,mismatch,1,13.88888888888889
60,285,L,invalid,568,pinza,right_mismatch,53.02989086,2021-12-20T13:13:42.000Z,339234,TRUE,2021-12-20T12:55:27.000Z,word,right,mismatch,1,13.88888888888889
66,201,A,invalid,483,coniglio,left_mismatch,53.02989086,2021-12-20T13:13:42.000Z,339234,TRUE,2021-12-20T12:55:27.000Z,word,left,mismatch,1,13.88888888888889
68,214,A,invalid,499,termometro,left_mismatch,53.02989086,2021-12-20T13:13:42.000Z,339234,TRUE,2021-12-20T12:55:27.000Z,word,left,mismatch,1,13.88888888888889
71,210,A,invalid,777,rasoio,left_mismatch,53.02989086,2021-12-20T13:13:42.000Z,339234,TRUE,2021-12-20T12:55:27.000Z,word,left,mismatch,1,13.88888888888889
76,207,A,invalid,412,pinza,left_mismatch,53.02989086,2021-12-20T13:13:42.000Z,339234,TRUE,2021-12-20T12:55:27.000Z,word,left,mismatch,1,13.88888888888889
77,204,A,invalid,410,melone,left_mismatch,53.02989086,2021-12-20T13:13:42.000Z,339234,TRUE,2021-12-20T12:55:27.000Z,word,left,mismatch,1,13.88888888888889
96,206,A,invalid,422,occhiali,left_mismatch,53.02989086,2021-12-20T13:13:42.000Z,339234,TRUE,2021-12-20T12:55:27.000Z,word,left,mismatch,1,13.88888888888889
108,198,A,invalid,404,cane,left_mismatch,53.02989086,2021-12-20T13:13:42.000Z,339234,TRUE,2021-12-20T12:55:27.000Z,word,left,mismatch,1,13.88888888888889
134,283,L,invalid,494,mucca,right_mismatch,53.02989086,2021-12-20T13:13:42.000Z,339234,TRUE,2021-12-20T12:55:27.000Z,word,right,mismatch,1,13.88888888888889
136,277,L,invalid,484,cervo,right_mismatch,53.02989086,2021-12-20T13:13:42.000Z,339234,TRUE,2021-12-20T12:55:27.000Z,word,right,mismatch,1,13.88888888888889
138,274,L,invalid,558,banana,right_mismatch,53.02989086,2021-12-20T13:13:42.000Z,339234,TRUE,2021-12-20T12:55:27.000Z,word,right,mismatch,1,13.88888888888889
140,275,L,invalid,432,bicchiere,right_mismatch,53.02989086,2021-12-20T13:13:42.000Z,339234,TRUE,2021-12-20T12:55:27.000Z,word,right,mismatch,1,13.88888888888889
