Trial_Nr,Trial_Id,answer,cue,reaction_time,target,target_pos_match,XGazeError,End_Time,Exp_Subject_Id,Is_Fullscreen,Start_Time
1,1,,,,,,,2021-12-20T14:54:52.000Z,339594,TRUE,2021-12-20T14:38:32.000Z
1,127,,invalid,0,mucca,right_match,34.23433304,2021-12-20T14:54:52.000Z,339594,TRUE,2021-12-20T14:38:32.000Z
2,258,,valid,0,2017,right_mismatch,34.23433304,2021-12-20T14:54:52.000Z,339594,TRUE,2021-12-20T14:38:32.000Z
3,279,L,invalid,669,coniglio,right_mismatch,34.23433304,2021-12-20T14:54:52.000Z,339594,TRUE,2021-12-20T14:38:32.000Z
4,250,L,valid,558,tartaruga,right_mismatch,34.23433304,2021-12-20T14:54:52.000Z,339594,TRUE,2021-12-20T14:38:32.000Z
5,242,L,valid,685,mandorla,right_mismatch,34.23433304,2021-12-20T14:54:52.000Z,339594,TRUE,2021-12-20T14:38:32.000Z
6,133,L,invalid,868,tartaruga,right_match,34.23433304,2021-12-20T14:54:52.000Z,339594,TRUE,2021-12-20T14:38:32.000Z
7,83,L,valid,672,chiave,right_match,34.23433304,2021-12-20T14:54:52.000Z,339594,TRUE,2021-12-20T14:38:32.000Z
8,273,L,valid,642,2059,right_mismatch,34.23433304,2021-12-20T14:54:52.000Z,339594,TRUE,2021-12-20T14:38:32.000Z
9,199,A,invalid,903,cervo,left_mismatch,34.23433304,2021-12-20T14:54:52.000Z,339594,TRUE,2021-12-20T14:38:32.000Z
10,112,L,valid,668,2040,right_match,34.23433304,2021-12-20T14:54:52.000Z,339594,TRUE,2021-12-20T14:38:32.000Z
11,301,L,invalid,695,2026,right_mismatch,34.23433304,2021-12-20T14:54:52.000Z,339594,TRUE,2021-12-20T14:38:32.000Z
12,106,L,valid,780,2026,right_match,34.23433304,2021-12-20T14:54:52.000Z,339594,TRUE,2021-12-20T14:38:32.000Z
13,187,A,valid,791,2036,left_mismatch,34.23433304,2021-12-20T14:54:52.000Z,339594,TRUE,2021-12-20T14:38:32.000Z
14,198,A,invalid,780,cane,left_mismatch,34.23433304,2021-12-20T14:54:52.000Z,339594,TRUE,2021-12-20T14:38:32.000Z
15,239,L,valid,394,chiave,right_mismatch,34.23433304,2021-12-20T14:54:52.000Z,339594,TRUE,2021-12-20T14:38:32.000Z
16,1,A,valid,514,banana,left_match,34.23433304,2021-12-20T14:54:52.000Z,339594,TRUE,2021-12-20T14:38:32.000Z
17,292,L,invalid,603,termometro,right_mismatch,34.23433304,2021-12-20T14:54:52.000Z,339594,TRUE,2021-12-20T14:38:32.000Z
18,290,L,invalid,953,telecomando,right_mismatch,34.23433304,2021-12-20T14:54:52.000Z,339594,TRUE,2021-12-20T14:38:32.000Z
19,116,L,valid,887,2058,right_match,34.23433304,2021-12-20T14:54:52.000Z,339594,TRUE,2021-12-20T14:38:32.000Z
20,124,L,invalid,850,frullatore,right_match,34.23433304,2021-12-20T14:54:52.000Z,339594,TRUE,2021-12-20T14:38:32.000Z
21,103,L,valid,751,2019,right_match,34.23433304,2021-12-20T14:54:52.000Z,339594,TRUE,2021-12-20T14:38:32.000Z
22,175,A,valid,599,termometro,left_mismatch,34.23433304,2021-12-20T14:54:52.000Z,339594,TRUE,2021-12-20T14:38:32.000Z
23,306,L,invalid,703,2039,right_mismatch,34.23433304,2021-12-20T14:54:52.000Z,339594,TRUE,2021-12-20T14:38:32.000Z
24,38,A,valid,594,2058,left_match,34.23433304,2021-12-20T14:54:52.000Z,339594,TRUE,2021-12-20T14:38:32.000Z
25,44,A,invalid,625,chiave,left_match,34.23433304,2021-12-20T14:54:52.000Z,339594,TRUE,2021-12-20T14:38:32.000Z
26,264,L,valid,643,2034,right_mismatch,34.23433304,2021-12-20T14:54:52.000Z,339594,TRUE,2021-12-20T14:38:32.000Z
27,230,A,invalid,998,2044,left_mismatch,34.23433304,2021-12-20T14:54:52.000Z,339594,TRUE,2021-12-20T14:38:32.000Z
28,302,L,invalid,837,2030,right_mismatch,34.23433304,2021-12-20T14:54:52.000Z,339594,TRUE,2021-12-20T14:38:32.000Z
29,256,L,valid,535,2010,right_mismatch,34.23433304,2021-12-20T14:54:52.000Z,339594,TRUE,2021-12-20T14:38:32.000Z
30,26,A,valid,573,2023,left_match,34.23433304,2021-12-20T14:54:52.000Z,339594,TRUE,2021-12-20T14:38:32.000Z
31,183,A,valid,461,2024,left_mismatch,34.23433304,2021-12-20T14:54:52.000Z,339594,TRUE,2021-12-20T14:38:32.000Z
32,49,A,invalid,661,mucca,left_match,34.23433304,2021-12-20T14:54:52.000Z,339594,TRUE,2021-12-20T14:38:32.000Z
33,2,A,valid,633,bicchiere,left_match,34.23433304,2021-12-20T14:54:52.000Z,339594,TRUE,2021-12-20T14:38:32.000Z
34,291,L,invalid,659,telefono,right_mismatch,34.23433304,2021-12-20T14:54:52.000Z,339594,TRUE,2021-12-20T14:38:32.000Z
35,194,A,valid,691,2058,left_mismatch,34.23433304,2021-12-20T14:54:52.000Z,339594,TRUE,2021-12-20T14:38:32.000Z
36,234,A,invalid,736,2059,left_mismatch,34.23433304,2021-12-20T14:54:52.000Z,339594,TRUE,2021-12-20T14:38:32.000Z
37,15,A,valid,610,rasoio,left_match,34.23433304,2021-12-20T14:54:52.000Z,339594,TRUE,2021-12-20T14:38:32.000Z
38,94,L,valid,630,tartaruga,right_match,34.23433304,2021-12-20T14:54:52.000Z,339594,TRUE,2021-12-20T14:38:32.000Z
39,3,A,valid,519,cane,left_match,34.23433304,2021-12-20T14:54:52.000Z,339594,TRUE,2021-12-20T14:38:32.000Z
40,21,A,valid,598,2006,left_match,34.23433304,2021-12-20T14:54:52.000Z,339594,TRUE,2021-12-20T14:38:32.000Z
41,216,A,invalid,659,2006,left_mismatch,34.23433304,2021-12-20T14:54:52.000Z,339594,TRUE,2021-12-20T14:38:32.000Z
42,9,A,valid,762,melone,left_match,34.23433304,2021-12-20T14:54:52.000Z,339594,TRUE,2021-12-20T14:38:32.000Z
43,177,A,valid,579,2006,left_mismatch,34.23433304,2021-12-20T14:54:52.000Z,339594,TRUE,2021-12-20T14:38:32.000Z
44,240,L,valid,552,coniglio,right_mismatch,34.23433304,2021-12-20T14:54:52.000Z,339594,TRUE,2021-12-20T14:38:32.000Z
45,233,A,invalid,684,2058,left_mismatch,34.23433304,2021-12-20T14:54:52.000Z,339594,TRUE,2021-12-20T14:38:32.000Z
46,120,L,invalid,446,cane,right_match,34.23433304,2021-12-20T14:54:52.000Z,339594,TRUE,2021-12-20T14:38:32.000Z
47,69,A,invalid,608,2034,left_match,34.23433304,2021-12-20T14:54:52.000Z,339594,TRUE,2021-12-20T14:38:32.000Z
48,142,L,invalid,657,2019,right_match,34.23433304,2021-12-20T14:54:52.000Z,339594,TRUE,2021-12-20T14:38:32.000Z
49,6,A,valid,467,coniglio,left_match,34.23433304,2021-12-20T14:54:52.000Z,339594,TRUE,2021-12-20T14:38:32.000Z
50,268,L,valid,590,2040,right_mismatch,34.23433304,2021-12-20T14:54:52.000Z,339594,TRUE,2021-12-20T14:38:32.000Z
51,30,A,valid,499,2034,left_match,34.23433304,2021-12-20T14:54:52.000Z,339594,TRUE,2021-12-20T14:38:32.000Z
52,107,L,valid,630,2030,right_match,34.23433304,2021-12-20T14:54:52.000Z,339594,TRUE,2021-12-20T14:38:32.000Z
53,65,A,invalid,570,2023,left_match,34.23433304,2021-12-20T14:54:52.000Z,339594,TRUE,2021-12-20T14:38:32.000Z
54,108,L,valid,485,2034,right_match,34.23433304,2021-12-20T14:54:52.000Z,339594,TRUE,2021-12-20T14:38:32.000Z
55,110,L,valid,862,2037,right_match,34.23433304,2021-12-20T14:54:52.000Z,339594,TRUE,2021-12-20T14:38:32.000Z
56,206,A,invalid,635,occhiali,left_mismatch,34.23433304,2021-12-20T14:54:52.000Z,339594,TRUE,2021-12-20T14:38:32.000Z
57,59,A,invalid,445,uva,left_match,34.23433304,2021-12-20T14:54:52.000Z,339594,TRUE,2021-12-20T14:38:32.000Z
58,235,L,valid,475,banana,right_mismatch,34.23433304,2021-12-20T14:54:52.000Z,339594,TRUE,2021-12-20T14:38:32.000Z
59,119,L,invalid,544,bicchiere,right_match,34.23433304,2021-12-20T14:54:52.000Z,339594,TRUE,2021-12-20T14:38:32.000Z
60,34,A,valid,580,2040,left_match,34.23433304,2021-12-20T14:54:52.000Z,339594,TRUE,2021-12-20T14:38:32.000Z
61,254,L,valid,516,uva,right_mismatch,34.23433304,2021-12-20T14:54:52.000Z,339594,TRUE,2021-12-20T14:38:32.000Z
62,8,A,valid,646,mandorla,left_match,34.23433304,2021-12-20T14:54:52.000Z,339594,TRUE,2021-12-20T14:38:32.000Z
63,231,A,invalid,526,2049,left_mismatch,34.23433304,2021-12-20T14:54:52.000Z,339594,TRUE,2021-12-20T14:38:32.000Z
64,129,L,invalid,628,pinza,right_match,34.23433304,2021-12-20T14:54:52.000Z,339594,TRUE,2021-12-20T14:38:32.000Z
65,67,A,invalid,627,2026,left_match,34.23433304,2021-12-20T14:54:52.000Z,339594,TRUE,2021-12-20T14:38:32.000Z
66,309,L,invalid,562,2049,right_mismatch,34.23433304,2021-12-20T14:54:52.000Z,339594,TRUE,2021-12-20T14:38:32.000Z
67,48,A,invalid,516,melone,left_match,34.23433304,2021-12-20T14:54:52.000Z,339594,TRUE,2021-12-20T14:38:32.000Z
68,278,L,invalid,596,chiave,right_mismatch,34.23433304,2021-12-20T14:54:52.000Z,339594,TRUE,2021-12-20T14:38:32.000Z
69,191,A,valid,558,2044,left_mismatch,34.23433304,2021-12-20T14:54:52.000Z,339594,TRUE,2021-12-20T14:38:32.000Z
70,277,L,invalid,529,cervo,right_mismatch,34.23433304,2021-12-20T14:54:52.000Z,339594,TRUE,2021-12-20T14:38:32.000Z
71,263,L,valid,673,2030,right_mismatch,34.23433304,2021-12-20T14:54:52.000Z,339594,TRUE,2021-12-20T14:38:32.000Z
72,33,A,valid,742,2039,left_match,34.23433304,2021-12-20T14:54:52.000Z,339594,TRUE,2021-12-20T14:38:32.000Z
73,217,A,invalid,614,2010,left_mismatch,34.23433304,2021-12-20T14:54:52.000Z,339594,TRUE,2021-12-20T14:38:32.000Z
74,165,A,valid,459,melone,left_mismatch,34.23433304,2021-12-20T14:54:52.000Z,339594,TRUE,2021-12-20T14:38:32.000Z
75,238,L,valid,460,cervo,right_mismatch,34.23433304,2021-12-20T14:54:52.000Z,339594,TRUE,2021-12-20T14:38:32.000Z
76,114,L,valid,584,2049,right_match,34.23433304,2021-12-20T14:54:52.000Z,339594,TRUE,2021-12-20T14:38:32.000Z
77,76,A,invalid,591,2052,left_match,34.23433304,2021-12-20T14:54:52.000Z,339594,TRUE,2021-12-20T14:38:32.000Z
78,213,A,invalid,1048,telefono,left_mismatch,34.23433304,2021-12-20T14:54:52.000Z,339594,TRUE,2021-12-20T14:38:32.000Z
79,170,A,valid,471,pomodoro,left_mismatch,34.23433304,2021-12-20T14:54:52.000Z,339594,TRUE,2021-12-20T14:38:32.000Z
80,70,A,invalid,526,2036,left_match,34.23433304,2021-12-20T14:54:52.000Z,339594,TRUE,2021-12-20T14:38:32.000Z
81,304,L,invalid,531,2036,right_mismatch,34.23433304,2021-12-20T14:54:52.000Z,339594,TRUE,2021-12-20T14:38:32.000Z
82,143,L,invalid,598,2023,right_match,34.23433304,2021-12-20T14:54:52.000Z,339594,TRUE,2021-12-20T14:38:32.000Z
83,13,A,valid,405,pistola,left_match,34.23433304,2021-12-20T14:54:52.000Z,339594,TRUE,2021-12-20T14:38:32.000Z
84,252,L,valid,473,telefono,right_mismatch,34.23433304,2021-12-20T14:54:52.000Z,339594,TRUE,2021-12-20T14:38:32.000Z
85,189,A,valid,578,2039,left_mismatch,34.23433304,2021-12-20T14:54:52.000Z,339594,TRUE,2021-12-20T14:38:32.000Z
86,218,A,invalid,655,2013,left_mismatch,34.23433304,2021-12-20T14:54:52.000Z,339594,TRUE,2021-12-20T14:38:32.000Z
87,287,L,invalid,627,pomodoro,right_mismatch,34.23433304,2021-12-20T14:54:52.000Z,339594,TRUE,2021-12-20T14:38:32.000Z
88,4,A,valid,520,cervo,left_match,34.23433304,2021-12-20T14:54:52.000Z,339594,TRUE,2021-12-20T14:38:32.000Z
89,14,A,valid,492,pomodoro,left_match,34.23433304,2021-12-20T14:54:52.000Z,339594,TRUE,2021-12-20T14:38:32.000Z
90,46,A,invalid,643,frullatore,left_match,34.23433304,2021-12-20T14:54:52.000Z,339594,TRUE,2021-12-20T14:38:32.000Z
91,212,A,invalid,538,telecomando,left_mismatch,34.23433304,2021-12-20T14:54:52.000Z,339594,TRUE,2021-12-20T14:38:32.000Z
92,160,A,valid,254,cervo,left_mismatch,34.23433304,2021-12-20T14:54:52.000Z,339594,TRUE,2021-12-20T14:38:32.000Z
93,310,L,invalid,648,2052,right_mismatch,34.23433304,2021-12-20T14:54:52.000Z,339594,TRUE,2021-12-20T14:38:32.000Z
94,45,A,invalid,452,coniglio,left_match,34.23433304,2021-12-20T14:54:52.000Z,339594,TRUE,2021-12-20T14:38:32.000Z
95,270,L,valid,515,2049,right_mismatch,34.23433304,2021-12-20T14:54:52.000Z,339594,TRUE,2021-12-20T14:38:32.000Z
96,288,L,invalid,608,rasoio,right_mismatch,34.23433304,2021-12-20T14:54:52.000Z,339594,TRUE,2021-12-20T14:38:32.000Z
97,164,A,valid,521,mandorla,left_mismatch,34.23433304,2021-12-20T14:54:52.000Z,339594,TRUE,2021-12-20T14:38:32.000Z
98,156,L,invalid,515,2059,right_match,34.23433304,2021-12-20T14:54:52.000Z,339594,TRUE,2021-12-20T14:38:32.000Z
99,148,L,invalid,514,2036,right_match,34.23433304,2021-12-20T14:54:52.000Z,339594,TRUE,2021-12-20T14:38:32.000Z
100,12,A,valid,573,pinza,left_match,34.23433304,2021-12-20T14:54:52.000Z,339594,TRUE,2021-12-20T14:38:32.000Z
101,139,L,invalid,650,2010,right_match,34.23433304,2021-12-20T14:54:52.000Z,339594,TRUE,2021-12-20T14:38:32.000Z
102,137,L,invalid,542,uva,right_match,34.23433304,2021-12-20T14:54:52.000Z,339594,TRUE,2021-12-20T14:38:32.000Z
103,68,A,invalid,654,2030,left_match,34.23433304,2021-12-20T14:54:52.000Z,339594,TRUE,2021-12-20T14:38:32.000Z
104,269,L,valid,673,2044,right_mismatch,34.23433304,2021-12-20T14:54:52.000Z,339594,TRUE,2021-12-20T14:38:32.000Z
105,272,L,valid,825,2058,right_mismatch,34.23433304,2021-12-20T14:54:52.000Z,339594,TRUE,2021-12-20T14:38:32.000Z
106,55,A,invalid,584,tartaruga,left_match,34.23433304,2021-12-20T14:54:52.000Z,339594,TRUE,2021-12-20T14:38:32.000Z
107,244,L,valid,489,mucca,right_mismatch,34.23433304,2021-12-20T14:54:52.000Z,339594,TRUE,2021-12-20T14:38:32.000Z
108,227,A,invalid,787,2037,left_mismatch,34.23433304,2021-12-20T14:54:52.000Z,339594,TRUE,2021-12-20T14:38:32.000Z
109,115,L,valid,502,2052,right_match,34.23433304,2021-12-20T14:54:52.000Z,339594,TRUE,2021-12-20T14:38:32.000Z
110,243,L,valid,495,melone,right_mismatch,34.23433304,2021-12-20T14:54:52.000Z,339594,TRUE,2021-12-20T14:38:32.000Z
111,311,L,invalid,526,2058,right_mismatch,34.23433304,2021-12-20T14:54:52.000Z,339594,TRUE,2021-12-20T14:38:32.000Z
112,229,A,invalid,659,2040,left_mismatch,34.23433304,2021-12-20T14:54:52.000Z,339594,TRUE,2021-12-20T14:38:32.000Z
113,37,A,valid,612,2052,left_match,34.23433304,2021-12-20T14:54:52.000Z,339594,TRUE,2021-12-20T14:38:32.000Z
114,90,L,valid,453,pinza,right_match,34.23433304,2021-12-20T14:54:52.000Z,339594,TRUE,2021-12-20T14:38:32.000Z
115,215,A,invalid,605,uva,left_mismatch,34.23433304,2021-12-20T14:54:52.000Z,339594,TRUE,2021-12-20T14:38:32.000Z
116,298,L,invalid,518,2019,right_mismatch,34.23433304,2021-12-20T14:54:52.000Z,339594,TRUE,2021-12-20T14:38:32.000Z
117,162,A,valid,767,coniglio,left_mismatch,34.23433304,2021-12-20T14:54:52.000Z,339594,TRUE,2021-12-20T14:38:32.000Z
118,208,A,invalid,476,pistola,left_mismatch,34.23433304,2021-12-20T14:54:52.000Z,339594,TRUE,2021-12-20T14:38:32.000Z
119,39,A,valid,576,2059,left_match,34.23433304,2021-12-20T14:54:52.000Z,339594,TRUE,2021-12-20T14:38:32.000Z
120,210,A,invalid,466,rasoio,left_mismatch,34.23433304,2021-12-20T14:54:52.000Z,339594,TRUE,2021-12-20T14:38:32.000Z
121,35,A,valid,534,2044,left_match,34.23433304,2021-12-20T14:54:52.000Z,339594,TRUE,2021-12-20T14:38:32.000Z
122,23,A,valid,469,2013,left_match,34.23433304,2021-12-20T14:54:52.000Z,339594,TRUE,2021-12-20T14:38:32.000Z
123,128,L,invalid,623,occhiali,right_match,34.23433304,2021-12-20T14:54:52.000Z,339594,TRUE,2021-12-20T14:38:32.000Z
124,84,L,valid,548,coniglio,right_match,34.23433304,2021-12-20T14:54:52.000Z,339594,TRUE,2021-12-20T14:38:32.000Z
125,300,L,invalid,604,2024,right_mismatch,34.23433304,2021-12-20T14:54:52.000Z,339594,TRUE,2021-12-20T14:38:32.000Z
126,42,A,invalid,631,cane,left_match,34.23433304,2021-12-20T14:54:52.000Z,339594,TRUE,2021-12-20T14:38:32.000Z
127,168,A,valid,586,pinza,left_mismatch,34.23433304,2021-12-20T14:54:52.000Z,339594,TRUE,2021-12-20T14:38:32.000Z
128,241,L,valid,542,frullatore,right_mismatch,34.23433304,2021-12-20T14:54:52.000Z,339594,TRUE,2021-12-20T14:38:32.000Z
129,155,L,invalid,515,2058,right_match,34.23433304,2021-12-20T14:54:52.000Z,339594,TRUE,2021-12-20T14:38:32.000Z
130,77,A,invalid,512,2058,left_match,34.23433304,2021-12-20T14:54:52.000Z,339594,TRUE,2021-12-20T14:38:32.000Z
131,255,,valid,0,2006,right_mismatch,34.23433304,2021-12-20T14:54:52.000Z,339594,TRUE,2021-12-20T14:38:32.000Z
132,60,A,invalid,664,2006,left_match,34.23433304,2021-12-20T14:54:52.000Z,339594,TRUE,2021-12-20T14:38:32.000Z
133,220,A,invalid,863,2019,left_mismatch,34.23433304,2021-12-20T14:54:52.000Z,339594,TRUE,2021-12-20T14:38:32.000Z
134,276,L,invalid,471,cane,right_mismatch,34.23433304,2021-12-20T14:54:52.000Z,339594,TRUE,2021-12-20T14:38:32.000Z
135,297,L,invalid,489,2017,right_mismatch,34.23433304,2021-12-20T14:54:52.000Z,339594,TRUE,2021-12-20T14:38:32.000Z
136,134,L,invalid,463,telecomando,right_match,34.23433304,2021-12-20T14:54:52.000Z,339594,TRUE,2021-12-20T14:38:32.000Z
137,118,L,invalid,371,banana,right_match,34.23433304,2021-12-20T14:54:52.000Z,339594,TRUE,2021-12-20T14:38:32.000Z
138,161,A,valid,653,chiave,left_mismatch,34.23433304,2021-12-20T14:54:52.000Z,339594,TRUE,2021-12-20T14:38:32.000Z
139,123,L,invalid,547,coniglio,right_match,34.23433304,2021-12-20T14:54:52.000Z,339594,TRUE,2021-12-20T14:38:32.000Z
140,193,A,valid,824,2052,left_mismatch,34.23433304,2021-12-20T14:54:52.000Z,339594,TRUE,2021-12-20T14:38:32.000Z
141,101,L,valid,810,2013,right_match,34.23433304,2021-12-20T14:54:52.000Z,339594,TRUE,2021-12-20T14:38:32.000Z
142,73,A,invalid,688,2040,left_match,34.23433304,2021-12-20T14:54:52.000Z,339594,TRUE,2021-12-20T14:38:32.000Z
143,62,A,invalid,765,2013,left_match,34.23433304,2021-12-20T14:54:52.000Z,339594,TRUE,2021-12-20T14:38:32.000Z
144,66,A,invalid,995,2024,left_match,34.23433304,2021-12-20T14:54:52.000Z,339594,TRUE,2021-12-20T14:38:32.000Z
1,1,,,,,,,2021-12-20T14:54:52.000Z,339594,TRUE,2021-12-20T14:38:32.000Z
1,1,,,,,,,2021-12-20T14:54:52.000Z,339594,TRUE,2021-12-20T14:38:32.000Z
1,1,,,,,,,2021-12-20T14:47:34.000Z,339585,TRUE,2021-12-20T14:31:06.000Z
1,219,A,invalid,637,2017,left_mismatch,32.76029428,2021-12-20T14:47:34.000Z,339585,TRUE,2021-12-20T14:31:06.000Z
2,83,L,valid,614,chiave,right_match,32.76029428,2021-12-20T14:47:34.000Z,339585,TRUE,2021-12-20T14:31:06.000Z
3,43,A,invalid,683,cervo,left_match,32.76029428,2021-12-20T14:47:34.000Z,339585,TRUE,2021-12-20T14:31:06.000Z
4,214,A,invalid,672,termometro,left_mismatch,32.76029428,2021-12-20T14:47:34.000Z,339585,TRUE,2021-12-20T14:31:06.000Z
5,146,L,invalid,647,2030,right_match,32.76029428,2021-12-20T14:47:34.000Z,339585,TRUE,2021-12-20T14:31:06.000Z
6,195,A,valid,565,2059,left_mismatch,32.76029428,2021-12-20T14:47:34.000Z,339585,TRUE,2021-12-20T14:31:06.000Z
7,228,A,invalid,680,2039,left_mismatch,32.76029428,2021-12-20T14:47:34.000Z,339585,TRUE,2021-12-20T14:31:06.000Z
8,125,L,invalid,502,mandorla,right_match,32.76029428,2021-12-20T14:47:34.000Z,339585,TRUE,2021-12-20T14:31:06.000Z
9,159,A,valid,676,cane,left_mismatch,32.76029428,2021-12-20T14:47:34.000Z,339585,TRUE,2021-12-20T14:31:06.000Z
10,135,L,invalid,613,telefono,right_match,32.76029428,2021-12-20T14:47:34.000Z,339585,TRUE,2021-12-20T14:31:06.000Z
11,109,L,valid,600,2036,right_match,32.76029428,2021-12-20T14:47:34.000Z,339585,TRUE,2021-12-20T14:31:06.000Z
12,308,L,invalid,571,2044,right_mismatch,32.76029428,2021-12-20T14:47:34.000Z,339585,TRUE,2021-12-20T14:31:06.000Z
13,284,L,invalid,582,occhiali,right_mismatch,32.76029428,2021-12-20T14:47:34.000Z,339585,TRUE,2021-12-20T14:31:06.000Z
14,292,L,invalid,427,termometro,right_mismatch,32.76029428,2021-12-20T14:47:34.000Z,339585,TRUE,2021-12-20T14:31:06.000Z
15,105,L,valid,291,2024,right_match,32.76029428,2021-12-20T14:47:34.000Z,339585,TRUE,2021-12-20T14:31:06.000Z
16,15,A,valid,361,rasoio,left_match,32.76029428,2021-12-20T14:47:34.000Z,339585,TRUE,2021-12-20T14:31:06.000Z
17,165,A,valid,489,melone,left_mismatch,32.76029428,2021-12-20T14:47:34.000Z,339585,TRUE,2021-12-20T14:31:06.000Z
18,55,A,invalid,483,tartaruga,left_match,32.76029428,2021-12-20T14:47:34.000Z,339585,TRUE,2021-12-20T14:31:06.000Z
19,282,L,invalid,510,melone,right_mismatch,32.76029428,2021-12-20T14:47:34.000Z,339585,TRUE,2021-12-20T14:31:06.000Z
20,272,L,valid,649,2058,right_mismatch,32.76029428,2021-12-20T14:47:34.000Z,339585,TRUE,2021-12-20T14:31:06.000Z
21,24,A,valid,495,2017,left_match,32.76029428,2021-12-20T14:47:34.000Z,339585,TRUE,2021-12-20T14:31:06.000Z
22,48,A,invalid,445,melone,left_match,32.76029428,2021-12-20T14:47:34.000Z,339585,TRUE,2021-12-20T14:31:06.000Z
23,47,L,invalid,486,mandorla,left_match,32.76029428,2021-12-20T14:47:34.000Z,339585,TRUE,2021-12-20T14:31:06.000Z
24,202,A,invalid,578,frullatore,left_mismatch,32.76029428,2021-12-20T14:47:34.000Z,339585,TRUE,2021-12-20T14:31:06.000Z
25,238,L,valid,492,cervo,right_mismatch,32.76029428,2021-12-20T14:47:34.000Z,339585,TRUE,2021-12-20T14:31:06.000Z
26,62,A,invalid,464,2013,left_match,32.76029428,2021-12-20T14:47:34.000Z,339585,TRUE,2021-12-20T14:31:06.000Z
27,186,A,valid,729,2034,left_mismatch,32.76029428,2021-12-20T14:47:34.000Z,339585,TRUE,2021-12-20T14:31:06.000Z
28,89,L,valid,492,occhiali,right_match,32.76029428,2021-12-20T14:47:34.000Z,339585,TRUE,2021-12-20T14:31:06.000Z
29,129,A,invalid,282,pinza,right_match,32.76029428,2021-12-20T14:47:34.000Z,339585,TRUE,2021-12-20T14:31:06.000Z
30,184,A,valid,542,2026,left_mismatch,32.76029428,2021-12-20T14:47:34.000Z,339585,TRUE,2021-12-20T14:31:06.000Z
31,268,L,valid,433,2040,right_mismatch,32.76029428,2021-12-20T14:47:34.000Z,339585,TRUE,2021-12-20T14:31:06.000Z
32,10,A,valid,406,mucca,left_match,32.76029428,2021-12-20T14:47:34.000Z,339585,TRUE,2021-12-20T14:31:06.000Z
33,280,L,invalid,420,frullatore,right_mismatch,32.76029428,2021-12-20T14:47:34.000Z,339585,TRUE,2021-12-20T14:31:06.000Z
34,288,L,invalid,391,rasoio,right_mismatch,32.76029428,2021-12-20T14:47:34.000Z,339585,TRUE,2021-12-20T14:31:06.000Z
35,20,A,valid,440,uva,left_match,32.76029428,2021-12-20T14:47:34.000Z,339585,TRUE,2021-12-20T14:31:06.000Z
36,302,L,invalid,398,2030,right_mismatch,32.76029428,2021-12-20T14:47:34.000Z,339585,TRUE,2021-12-20T14:31:06.000Z
37,172,A,valid,438,tartaruga,left_mismatch,32.76029428,2021-12-20T14:47:34.000Z,339585,TRUE,2021-12-20T14:31:06.000Z
38,65,A,invalid,479,2023,left_match,32.76029428,2021-12-20T14:47:34.000Z,339585,TRUE,2021-12-20T14:31:06.000Z
39,303,L,invalid,431,2034,right_mismatch,32.76029428,2021-12-20T14:47:34.000Z,339585,TRUE,2021-12-20T14:31:06.000Z
40,170,A,valid,467,pomodoro,left_mismatch,32.76029428,2021-12-20T14:47:34.000Z,339585,TRUE,2021-12-20T14:31:06.000Z
41,126,L,invalid,393,melone,right_match,32.76029428,2021-12-20T14:47:34.000Z,339585,TRUE,2021-12-20T14:31:06.000Z
42,3,A,valid,395,cane,left_match,32.76029428,2021-12-20T14:47:34.000Z,339585,TRUE,2021-12-20T14:31:06.000Z
43,140,L,invalid,415,2013,right_match,32.76029428,2021-12-20T14:47:34.000Z,339585,TRUE,2021-12-20T14:31:06.000Z
44,118,L,invalid,400,banana,right_match,32.76029428,2021-12-20T14:47:34.000Z,339585,TRUE,2021-12-20T14:31:06.000Z
45,245,L,valid,548,occhiali,right_mismatch,32.76029428,2021-12-20T14:47:34.000Z,339585,TRUE,2021-12-20T14:31:06.000Z
46,31,A,valid,212,2036,left_match,32.76029428,2021-12-20T14:47:34.000Z,339585,TRUE,2021-12-20T14:31:06.000Z
47,2,A,valid,407,bicchiere,left_match,32.76029428,2021-12-20T14:47:34.000Z,339585,TRUE,2021-12-20T14:31:06.000Z
48,187,A,valid,380,2036,left_mismatch,32.76029428,2021-12-20T14:47:34.000Z,339585,TRUE,2021-12-20T14:31:06.000Z
49,299,L,invalid,405,2023,right_mismatch,32.76029428,2021-12-20T14:47:34.000Z,339585,TRUE,2021-12-20T14:31:06.000Z
50,162,A,valid,463,coniglio,left_mismatch,32.76029428,2021-12-20T14:47:34.000Z,339585,TRUE,2021-12-20T14:31:06.000Z
51,305,L,invalid,398,2037,right_mismatch,32.76029428,2021-12-20T14:47:34.000Z,339585,TRUE,2021-12-20T14:31:06.000Z
52,178,A,valid,408,2010,left_mismatch,32.76029428,2021-12-20T14:47:34.000Z,339585,TRUE,2021-12-20T14:31:06.000Z
53,255,L,valid,398,2006,right_mismatch,32.76029428,2021-12-20T14:47:34.000Z,339585,TRUE,2021-12-20T14:31:06.000Z
54,261,L,valid,265,2024,right_mismatch,32.76029428,2021-12-20T14:47:34.000Z,339585,TRUE,2021-12-20T14:31:06.000Z
55,275,A,invalid,265,bicchiere,right_mismatch,32.76029428,2021-12-20T14:47:34.000Z,339585,TRUE,2021-12-20T14:31:06.000Z
56,180,A,valid,598,2017,left_mismatch,32.76029428,2021-12-20T14:47:34.000Z,339585,TRUE,2021-12-20T14:31:06.000Z
57,309,L,invalid,518,2049,right_mismatch,32.76029428,2021-12-20T14:47:34.000Z,339585,TRUE,2021-12-20T14:31:06.000Z
58,185,A,valid,477,2030,left_mismatch,32.76029428,2021-12-20T14:47:34.000Z,339585,TRUE,2021-12-20T14:31:06.000Z
59,306,L,invalid,445,2039,right_mismatch,32.76029428,2021-12-20T14:47:34.000Z,339585,TRUE,2021-12-20T14:31:06.000Z
60,296,L,invalid,509,2013,right_mismatch,32.76029428,2021-12-20T14:47:34.000Z,339585,TRUE,2021-12-20T14:31:06.000Z
61,290,L,invalid,463,telecomando,right_mismatch,32.76029428,2021-12-20T14:47:34.000Z,339585,TRUE,2021-12-20T14:31:06.000Z
62,136,L,invalid,421,termometro,right_match,32.76029428,2021-12-20T14:47:34.000Z,339585,TRUE,2021-12-20T14:31:06.000Z
63,108,L,valid,500,2034,right_match,32.76029428,2021-12-20T14:47:34.000Z,339585,TRUE,2021-12-20T14:31:06.000Z
64,253,L,valid,432,termometro,right_mismatch,32.76029428,2021-12-20T14:47:34.000Z,339585,TRUE,2021-12-20T14:31:06.000Z
65,177,A,valid,505,2006,left_mismatch,32.76029428,2021-12-20T14:47:34.000Z,339585,TRUE,2021-12-20T14:31:06.000Z
66,301,L,invalid,335,2026,right_mismatch,32.76029428,2021-12-20T14:47:34.000Z,339585,TRUE,2021-12-20T14:31:06.000Z
67,106,L,valid,381,2026,right_match,32.76029428,2021-12-20T14:47:34.000Z,339585,TRUE,2021-12-20T14:31:06.000Z
68,25,A,valid,396,2019,left_match,32.76029428,2021-12-20T14:47:34.000Z,339585,TRUE,2021-12-20T14:31:06.000Z
69,224,L,invalid,299,2030,left_mismatch,32.76029428,2021-12-20T14:47:34.000Z,339585,TRUE,2021-12-20T14:31:06.000Z
70,78,A,invalid,519,2059,left_match,32.76029428,2021-12-20T14:47:34.000Z,339585,TRUE,2021-12-20T14:31:06.000Z
71,4,A,valid,469,cervo,left_match,32.76029428,2021-12-20T14:47:34.000Z,339585,TRUE,2021-12-20T14:31:06.000Z
72,63,A,invalid,417,2017,left_match,32.76029428,2021-12-20T14:47:34.000Z,339585,TRUE,2021-12-20T14:31:06.000Z
73,207,A,invalid,450,pinza,left_mismatch,32.76029428,2021-12-20T14:47:34.000Z,339585,TRUE,2021-12-20T14:31:06.000Z
74,208,A,invalid,472,pistola,left_mismatch,32.76029428,2021-12-20T14:47:34.000Z,339585,TRUE,2021-12-20T14:31:06.000Z
75,183,A,valid,483,2024,left_mismatch,32.76029428,2021-12-20T14:47:34.000Z,339585,TRUE,2021-12-20T14:31:06.000Z
76,197,A,invalid,407,bicchiere,left_mismatch,32.76029428,2021-12-20T14:47:34.000Z,339585,TRUE,2021-12-20T14:31:06.000Z
77,276,L,invalid,396,cane,right_mismatch,32.76029428,2021-12-20T14:47:34.000Z,339585,TRUE,2021-12-20T14:31:06.000Z
78,12,A,valid,475,pinza,left_match,32.76029428,2021-12-20T14:47:34.000Z,339585,TRUE,2021-12-20T14:31:06.000Z
79,33,A,valid,397,2039,left_match,32.76029428,2021-12-20T14:47:34.000Z,339585,TRUE,2021-12-20T14:31:06.000Z
80,194,A,valid,383,2058,left_mismatch,32.76029428,2021-12-20T14:47:34.000Z,339585,TRUE,2021-12-20T14:31:06.000Z
81,88,L,valid,481,mucca,right_match,32.76029428,2021-12-20T14:47:34.000Z,339585,TRUE,2021-12-20T14:31:06.000Z
82,270,L,valid,455,2049,right_mismatch,32.76029428,2021-12-20T14:47:34.000Z,339585,TRUE,2021-12-20T14:31:06.000Z
83,92,L,valid,474,pomodoro,right_match,32.76029428,2021-12-20T14:47:34.000Z,339585,TRUE,2021-12-20T14:31:06.000Z
84,49,A,invalid,382,mucca,left_match,32.76029428,2021-12-20T14:47:34.000Z,339585,TRUE,2021-12-20T14:31:06.000Z
85,294,L,invalid,415,2006,right_mismatch,32.76029428,2021-12-20T14:47:34.000Z,339585,TRUE,2021-12-20T14:31:06.000Z
86,271,L,valid,477,2052,right_mismatch,32.76029428,2021-12-20T14:47:34.000Z,339585,TRUE,2021-12-20T14:31:06.000Z
87,60,A,invalid,422,2006,left_match,32.76029428,2021-12-20T14:47:34.000Z,339585,TRUE,2021-12-20T14:31:06.000Z
88,204,A,invalid,401,melone,left_mismatch,32.76029428,2021-12-20T14:47:34.000Z,339585,TRUE,2021-12-20T14:31:06.000Z
89,124,L,invalid,403,frullatore,right_match,32.76029428,2021-12-20T14:47:34.000Z,339585,TRUE,2021-12-20T14:31:06.000Z
90,200,A,invalid,413,chiave,left_mismatch,32.76029428,2021-12-20T14:47:34.000Z,339585,TRUE,2021-12-20T14:31:06.000Z
91,36,A,valid,479,2049,left_match,32.76029428,2021-12-20T14:47:34.000Z,339585,TRUE,2021-12-20T14:31:06.000Z
92,193,A,valid,422,2052,left_mismatch,32.76029428,2021-12-20T14:47:34.000Z,339585,TRUE,2021-12-20T14:31:06.000Z
93,274,L,invalid,329,banana,right_mismatch,32.76029428,2021-12-20T14:47:34.000Z,339585,TRUE,2021-12-20T14:31:06.000Z
94,158,A,valid,412,bicchiere,left_mismatch,32.76029428,2021-12-20T14:47:34.000Z,339585,TRUE,2021-12-20T14:31:06.000Z
95,39,A,valid,415,2059,left_match,32.76029428,2021-12-20T14:47:34.000Z,339585,TRUE,2021-12-20T14:31:06.000Z
96,161,A,valid,394,chiave,left_mismatch,32.76029428,2021-12-20T14:47:34.000Z,339585,TRUE,2021-12-20T14:31:06.000Z
97,212,A,invalid,405,telecomando,left_mismatch,32.76029428,2021-12-20T14:47:34.000Z,339585,TRUE,2021-12-20T14:31:06.000Z
98,84,L,valid,476,coniglio,right_match,32.76029428,2021-12-20T14:47:34.000Z,339585,TRUE,2021-12-20T14:31:06.000Z
99,18,A,valid,406,telefono,left_match,32.76029428,2021-12-20T14:47:34.000Z,339585,TRUE,2021-12-20T14:31:06.000Z
100,21,A,valid,391,2006,left_match,32.76029428,2021-12-20T14:47:34.000Z,339585,TRUE,2021-12-20T14:31:06.000Z
101,250,L,valid,467,tartaruga,right_mismatch,32.76029428,2021-12-20T14:47:34.000Z,339585,TRUE,2021-12-20T14:31:06.000Z
102,38,A,valid,471,2058,left_match,32.76029428,2021-12-20T14:47:34.000Z,339585,TRUE,2021-12-20T14:31:06.000Z
103,234,A,invalid,492,2059,left_mismatch,32.76029428,2021-12-20T14:47:34.000Z,339585,TRUE,2021-12-20T14:31:06.000Z
104,277,L,invalid,626,cervo,right_mismatch,32.76029428,2021-12-20T14:47:34.000Z,339585,TRUE,2021-12-20T14:31:06.000Z
105,205,A,invalid,389,mucca,left_mismatch,32.76029428,2021-12-20T14:47:34.000Z,339585,TRUE,2021-12-20T14:31:06.000Z
106,30,A,valid,504,2034,left_match,32.76029428,2021-12-20T14:47:34.000Z,339585,TRUE,2021-12-20T14:31:06.000Z
107,122,L,invalid,439,chiave,right_match,32.76029428,2021-12-20T14:47:34.000Z,339585,TRUE,2021-12-20T14:31:06.000Z
108,254,L,valid,512,uva,right_mismatch,32.76029428,2021-12-20T14:47:34.000Z,339585,TRUE,2021-12-20T14:31:06.000Z
109,192,A,valid,648,2049,left_mismatch,32.76029428,2021-12-20T14:47:34.000Z,339585,TRUE,2021-12-20T14:31:06.000Z
110,153,L,invalid,483,2049,right_match,32.76029428,2021-12-20T14:47:34.000Z,339585,TRUE,2021-12-20T14:31:06.000Z
111,113,L,valid,498,2044,right_match,32.76029428,2021-12-20T14:47:34.000Z,339585,TRUE,2021-12-20T14:31:06.000Z
112,127,L,invalid,596,mucca,right_match,32.76029428,2021-12-20T14:47:34.000Z,339585,TRUE,2021-12-20T14:31:06.000Z
113,26,A,valid,417,2023,left_match,32.76029428,2021-12-20T14:47:34.000Z,339585,TRUE,2021-12-20T14:31:06.000Z
114,141,L,invalid,423,2017,right_match,32.76029428,2021-12-20T14:47:34.000Z,339585,TRUE,2021-12-20T14:31:06.000Z
115,101,L,valid,483,2013,right_match,32.76029428,2021-12-20T14:47:34.000Z,339585,TRUE,2021-12-20T14:31:06.000Z
116,188,A,valid,401,2037,left_mismatch,32.76029428,2021-12-20T14:47:34.000Z,339585,TRUE,2021-12-20T14:31:06.000Z
117,97,L,valid,480,termometro,right_match,32.76029428,2021-12-20T14:47:34.000Z,339585,TRUE,2021-12-20T14:31:06.000Z
118,11,A,valid,483,occhiali,left_match,32.76029428,2021-12-20T14:47:34.000Z,339585,TRUE,2021-12-20T14:31:06.000Z
119,117,L,valid,418,2059,right_match,32.76029428,2021-12-20T14:47:34.000Z,339585,TRUE,2021-12-20T14:31:06.000Z
120,248,L,valid,447,pomodoro,right_mismatch,32.76029428,2021-12-20T14:47:34.000Z,339585,TRUE,2021-12-20T14:31:06.000Z
121,289,L,invalid,480,tartaruga,right_mismatch,32.76029428,2021-12-20T14:47:34.000Z,339585,TRUE,2021-12-20T14:31:06.000Z
122,196,A,invalid,464,banana,left_mismatch,32.76029428,2021-12-20T14:47:34.000Z,339585,TRUE,2021-12-20T14:31:06.000Z
123,201,A,invalid,401,coniglio,left_mismatch,32.76029428,2021-12-20T14:47:34.000Z,339585,TRUE,2021-12-20T14:31:06.000Z
124,116,L,valid,544,2058,right_match,32.76029428,2021-12-20T14:47:34.000Z,339585,TRUE,2021-12-20T14:31:06.000Z
125,265,L,valid,475,2036,right_mismatch,32.76029428,2021-12-20T14:47:34.000Z,339585,TRUE,2021-12-20T14:31:06.000Z
126,110,L,valid,546,2037,right_match,32.76029428,2021-12-20T14:47:34.000Z,339585,TRUE,2021-12-20T14:31:06.000Z
127,77,A,invalid,453,2058,left_match,32.76029428,2021-12-20T14:47:34.000Z,339585,TRUE,2021-12-20T14:31:06.000Z
128,199,L,invalid,308,cervo,left_mismatch,32.76029428,2021-12-20T14:47:34.000Z,339585,TRUE,2021-12-20T14:31:06.000Z
129,68,A,invalid,515,2030,left_match,32.76029428,2021-12-20T14:47:34.000Z,339585,TRUE,2021-12-20T14:31:06.000Z
130,123,L,invalid,480,coniglio,right_match,32.76029428,2021-12-20T14:47:34.000Z,339585,TRUE,2021-12-20T14:31:06.000Z
131,139,L,invalid,446,2010,right_match,32.76029428,2021-12-20T14:47:34.000Z,339585,TRUE,2021-12-20T14:31:06.000Z
132,56,A,invalid,403,telecomando,left_match,32.76029428,2021-12-20T14:47:34.000Z,339585,TRUE,2021-12-20T14:31:06.000Z
133,209,A,invalid,432,pomodoro,left_mismatch,32.76029428,2021-12-20T14:47:34.000Z,339585,TRUE,2021-12-20T14:31:06.000Z
134,173,A,valid,379,telecomando,left_mismatch,32.76029428,2021-12-20T14:47:34.000Z,339585,TRUE,2021-12-20T14:31:06.000Z
135,90,L,valid,420,pinza,right_match,32.76029428,2021-12-20T14:47:34.000Z,339585,TRUE,2021-12-20T14:31:06.000Z
136,295,L,invalid,492,2010,right_mismatch,32.76029428,2021-12-20T14:47:34.000Z,339585,TRUE,2021-12-20T14:31:06.000Z
137,218,A,invalid,413,2013,left_mismatch,32.76029428,2021-12-20T14:47:34.000Z,339585,TRUE,2021-12-20T14:31:06.000Z
138,144,L,invalid,547,2024,right_match,32.76029428,2021-12-20T14:47:34.000Z,339585,TRUE,2021-12-20T14:31:06.000Z
139,66,A,invalid,341,2024,left_match,32.76029428,2021-12-20T14:47:34.000Z,339585,TRUE,2021-12-20T14:31:06.000Z
140,211,A,invalid,408,tartaruga,left_mismatch,32.76029428,2021-12-20T14:47:34.000Z,339585,TRUE,2021-12-20T14:31:06.000Z
141,143,L,invalid,437,2023,right_match,32.76029428,2021-12-20T14:47:34.000Z,339585,TRUE,2021-12-20T14:31:06.000Z
142,1,A,valid,395,banana,left_match,32.76029428,2021-12-20T14:47:34.000Z,339585,TRUE,2021-12-20T14:31:06.000Z
143,233,A,invalid,393,2058,left_mismatch,32.76029428,2021-12-20T14:47:34.000Z,339585,TRUE,2021-12-20T14:31:06.000Z
144,41,A,invalid,462,bicchiere,left_match,32.76029428,2021-12-20T14:47:34.000Z,339585,TRUE,2021-12-20T14:31:06.000Z
1,1,,,,,,,2021-12-20T14:47:34.000Z,339585,TRUE,2021-12-20T14:31:06.000Z
1,1,,,,,,,2021-12-20T14:47:34.000Z,339585,TRUE,2021-12-20T14:31:06.000Z
1,1,,,,,,,2021-12-20T14:41:22.000Z,339566,TRUE,2021-12-20T14:23:37.000Z
1,135,L,invalid,670,telefono,right_match,21.5661388,2021-12-20T14:41:22.000Z,339566,TRUE,2021-12-20T14:23:37.000Z
2,20,A,valid,533,uva,left_match,21.5661388,2021-12-20T14:41:22.000Z,339566,TRUE,2021-12-20T14:23:37.000Z
3,147,L,invalid,321,2034,right_match,21.5661388,2021-12-20T14:41:22.000Z,339566,TRUE,2021-12-20T14:23:37.000Z
4,141,L,invalid,249,2017,right_match,21.5661388,2021-12-20T14:41:22.000Z,339566,TRUE,2021-12-20T14:23:37.000Z
5,172,A,valid,512,tartaruga,left_mismatch,21.5661388,2021-12-20T14:41:22.000Z,339566,TRUE,2021-12-20T14:23:37.000Z
6,275,L,invalid,330,bicchiere,right_mismatch,21.5661388,2021-12-20T14:41:22.000Z,339566,TRUE,2021-12-20T14:23:37.000Z
7,237,L,valid,424,cane,right_mismatch,21.5661388,2021-12-20T14:41:22.000Z,339566,TRUE,2021-12-20T14:23:37.000Z
8,97,L,valid,449,termometro,right_match,21.5661388,2021-12-20T14:41:22.000Z,339566,TRUE,2021-12-20T14:23:37.000Z
9,278,L,invalid,356,chiave,right_mismatch,21.5661388,2021-12-20T14:41:22.000Z,339566,TRUE,2021-12-20T14:23:37.000Z
10,310,L,invalid,312,2052,right_mismatch,21.5661388,2021-12-20T14:41:22.000Z,339566,TRUE,2021-12-20T14:23:37.000Z
11,112,L,valid,329,2040,right_match,21.5661388,2021-12-20T14:41:22.000Z,339566,TRUE,2021-12-20T14:23:37.000Z
12,258,L,valid,424,2017,right_mismatch,21.5661388,2021-12-20T14:41:22.000Z,339566,TRUE,2021-12-20T14:23:37.000Z
13,291,L,invalid,341,telefono,right_mismatch,21.5661388,2021-12-20T14:41:22.000Z,339566,TRUE,2021-12-20T14:23:37.000Z
14,263,L,valid,447,2030,right_mismatch,21.5661388,2021-12-20T14:41:22.000Z,339566,TRUE,2021-12-20T14:23:37.000Z
15,171,A,valid,433,rasoio,left_mismatch,21.5661388,2021-12-20T14:41:22.000Z,339566,TRUE,2021-12-20T14:23:37.000Z
16,117,L,valid,382,2059,right_match,21.5661388,2021-12-20T14:41:22.000Z,339566,TRUE,2021-12-20T14:23:37.000Z
17,162,A,valid,324,coniglio,left_mismatch,21.5661388,2021-12-20T14:41:22.000Z,339566,TRUE,2021-12-20T14:23:37.000Z
18,208,A,invalid,332,pistola,left_mismatch,21.5661388,2021-12-20T14:41:22.000Z,339566,TRUE,2021-12-20T14:23:37.000Z
19,52,A,invalid,346,pistola,left_match,21.5661388,2021-12-20T14:41:22.000Z,339566,TRUE,2021-12-20T14:23:37.000Z
20,74,A,invalid,357,2044,left_match,21.5661388,2021-12-20T14:41:22.000Z,339566,TRUE,2021-12-20T14:23:37.000Z
21,205,A,invalid,418,mucca,left_mismatch,21.5661388,2021-12-20T14:41:22.000Z,339566,TRUE,2021-12-20T14:23:37.000Z
22,133,L,invalid,426,tartaruga,right_match,21.5661388,2021-12-20T14:41:22.000Z,339566,TRUE,2021-12-20T14:23:37.000Z
23,116,L,valid,331,2058,right_match,21.5661388,2021-12-20T14:41:22.000Z,339566,TRUE,2021-12-20T14:23:37.000Z
24,103,L,valid,419,2019,right_match,21.5661388,2021-12-20T14:41:22.000Z,339566,TRUE,2021-12-20T14:23:37.000Z
25,235,L,valid,453,banana,right_mismatch,21.5661388,2021-12-20T14:41:22.000Z,339566,TRUE,2021-12-20T14:23:37.000Z
26,231,A,invalid,341,2049,left_mismatch,21.5661388,2021-12-20T14:41:22.000Z,339566,TRUE,2021-12-20T14:23:37.000Z
27,105,L,valid,426,2024,right_match,21.5661388,2021-12-20T14:41:22.000Z,339566,TRUE,2021-12-20T14:23:37.000Z
28,196,A,invalid,341,banana,left_mismatch,21.5661388,2021-12-20T14:41:22.000Z,339566,TRUE,2021-12-20T14:23:37.000Z
29,4,A,valid,299,cervo,left_match,21.5661388,2021-12-20T14:41:22.000Z,339566,TRUE,2021-12-20T14:23:37.000Z
30,3,A,valid,261,cane,left_match,21.5661388,2021-12-20T14:41:22.000Z,339566,TRUE,2021-12-20T14:23:37.000Z
31,293,L,invalid,341,uva,right_mismatch,21.5661388,2021-12-20T14:41:22.000Z,339566,TRUE,2021-12-20T14:23:37.000Z
32,134,L,invalid,356,telecomando,right_match,21.5661388,2021-12-20T14:41:22.000Z,339566,TRUE,2021-12-20T14:23:37.000Z
33,45,A,invalid,346,coniglio,left_match,21.5661388,2021-12-20T14:41:22.000Z,339566,TRUE,2021-12-20T14:23:37.000Z
34,131,L,invalid,337,pomodoro,right_match,21.5661388,2021-12-20T14:41:22.000Z,339566,TRUE,2021-12-20T14:23:37.000Z
35,132,L,invalid,422,rasoio,right_match,21.5661388,2021-12-20T14:41:22.000Z,339566,TRUE,2021-12-20T14:23:37.000Z
36,62,A,invalid,328,2013,left_match,21.5661388,2021-12-20T14:41:22.000Z,339566,TRUE,2021-12-20T14:23:37.000Z
37,305,L,invalid,338,2037,right_mismatch,21.5661388,2021-12-20T14:41:22.000Z,339566,TRUE,2021-12-20T14:23:37.000Z
38,122,L,invalid,378,chiave,right_match,21.5661388,2021-12-20T14:41:22.000Z,339566,TRUE,2021-12-20T14:23:37.000Z
39,107,L,valid,439,2030,right_match,21.5661388,2021-12-20T14:41:22.000Z,339566,TRUE,2021-12-20T14:23:37.000Z
40,288,L,invalid,381,rasoio,right_mismatch,21.5661388,2021-12-20T14:41:22.000Z,339566,TRUE,2021-12-20T14:23:37.000Z
41,169,A,valid,427,pistola,left_mismatch,21.5661388,2021-12-20T14:41:22.000Z,339566,TRUE,2021-12-20T14:23:37.000Z
42,239,L,valid,326,chiave,right_mismatch,21.5661388,2021-12-20T14:41:22.000Z,339566,TRUE,2021-12-20T14:23:37.000Z
43,98,L,valid,425,uva,right_match,21.5661388,2021-12-20T14:41:22.000Z,339566,TRUE,2021-12-20T14:23:37.000Z
44,251,L,valid,348,telecomando,right_mismatch,21.5661388,2021-12-20T14:41:22.000Z,339566,TRUE,2021-12-20T14:23:37.000Z
45,139,L,invalid,406,2010,right_match,21.5661388,2021-12-20T14:41:22.000Z,339566,TRUE,2021-12-20T14:23:37.000Z
46,19,A,valid,421,termometro,left_match,21.5661388,2021-12-20T14:41:22.000Z,339566,TRUE,2021-12-20T14:23:37.000Z
47,77,A,invalid,342,2058,left_match,21.5661388,2021-12-20T14:41:22.000Z,339566,TRUE,2021-12-20T14:23:37.000Z
48,66,A,invalid,316,2024,left_match,21.5661388,2021-12-20T14:41:22.000Z,339566,TRUE,2021-12-20T14:23:37.000Z
49,277,L,invalid,333,cervo,right_mismatch,21.5661388,2021-12-20T14:41:22.000Z,339566,TRUE,2021-12-20T14:23:37.000Z
50,311,L,invalid,419,2058,right_mismatch,21.5661388,2021-12-20T14:41:22.000Z,339566,TRUE,2021-12-20T14:23:37.000Z
51,270,L,valid,436,2049,right_mismatch,21.5661388,2021-12-20T14:41:22.000Z,339566,TRUE,2021-12-20T14:23:37.000Z
52,176,A,valid,329,uva,left_mismatch,21.5661388,2021-12-20T14:41:22.000Z,339566,TRUE,2021-12-20T14:23:37.000Z
53,210,L,invalid,270,rasoio,left_mismatch,21.5661388,2021-12-20T14:41:22.000Z,339566,TRUE,2021-12-20T14:23:37.000Z
54,269,L,valid,451,2044,right_mismatch,21.5661388,2021-12-20T14:41:22.000Z,339566,TRUE,2021-12-20T14:23:37.000Z
55,250,L,valid,332,tartaruga,right_mismatch,21.5661388,2021-12-20T14:41:22.000Z,339566,TRUE,2021-12-20T14:23:37.000Z
56,55,A,invalid,330,tartaruga,left_match,21.5661388,2021-12-20T14:41:22.000Z,339566,TRUE,2021-12-20T14:23:37.000Z
57,109,L,valid,407,2036,right_match,21.5661388,2021-12-20T14:41:22.000Z,339566,TRUE,2021-12-20T14:23:37.000Z
58,298,L,invalid,445,2019,right_mismatch,21.5661388,2021-12-20T14:41:22.000Z,339566,TRUE,2021-12-20T14:23:37.000Z
59,128,L,invalid,350,occhiali,right_match,21.5661388,2021-12-20T14:41:22.000Z,339566,TRUE,2021-12-20T14:23:37.000Z
60,292,L,invalid,324,termometro,right_mismatch,21.5661388,2021-12-20T14:41:22.000Z,339566,TRUE,2021-12-20T14:23:37.000Z
61,14,A,valid,439,pomodoro,left_match,21.5661388,2021-12-20T14:41:22.000Z,339566,TRUE,2021-12-20T14:23:37.000Z
62,256,L,valid,354,2010,right_mismatch,21.5661388,2021-12-20T14:41:22.000Z,339566,TRUE,2021-12-20T14:23:37.000Z
63,197,A,invalid,322,bicchiere,left_mismatch,21.5661388,2021-12-20T14:41:22.000Z,339566,TRUE,2021-12-20T14:23:37.000Z
64,73,A,invalid,437,2040,left_match,21.5661388,2021-12-20T14:41:22.000Z,339566,TRUE,2021-12-20T14:23:37.000Z
65,51,A,invalid,406,pinza,left_match,21.5661388,2021-12-20T14:41:22.000Z,339566,TRUE,2021-12-20T14:23:37.000Z
66,232,A,invalid,310,2052,left_mismatch,21.5661388,2021-12-20T14:41:22.000Z,339566,TRUE,2021-12-20T14:23:37.000Z
67,87,L,valid,460,melone,right_match,21.5661388,2021-12-20T14:41:22.000Z,339566,TRUE,2021-12-20T14:23:37.000Z
68,309,L,invalid,327,2049,right_mismatch,21.5661388,2021-12-20T14:41:22.000Z,339566,TRUE,2021-12-20T14:23:37.000Z
69,245,L,valid,428,occhiali,right_mismatch,21.5661388,2021-12-20T14:41:22.000Z,339566,TRUE,2021-12-20T14:23:37.000Z
70,211,A,invalid,358,tartaruga,left_mismatch,21.5661388,2021-12-20T14:41:22.000Z,339566,TRUE,2021-12-20T14:23:37.000Z
71,137,L,invalid,466,uva,right_match,21.5661388,2021-12-20T14:41:22.000Z,339566,TRUE,2021-12-20T14:23:37.000Z
72,182,A,valid,459,2023,left_mismatch,21.5661388,2021-12-20T14:41:22.000Z,339566,TRUE,2021-12-20T14:23:37.000Z
73,83,L,valid,338,chiave,right_match,21.5661388,2021-12-20T14:41:22.000Z,339566,TRUE,2021-12-20T14:23:37.000Z
74,181,A,valid,424,2019,left_mismatch,21.5661388,2021-12-20T14:41:22.000Z,339566,TRUE,2021-12-20T14:23:37.000Z
75,146,L,invalid,336,2030,right_match,21.5661388,2021-12-20T14:41:22.000Z,339566,TRUE,2021-12-20T14:23:37.000Z
76,234,A,invalid,339,2059,left_mismatch,21.5661388,2021-12-20T14:41:22.000Z,339566,TRUE,2021-12-20T14:23:37.000Z
77,220,A,invalid,357,2019,left_mismatch,21.5661388,2021-12-20T14:41:22.000Z,339566,TRUE,2021-12-20T14:23:37.000Z
78,48,A,invalid,361,melone,left_match,21.5661388,2021-12-20T14:41:22.000Z,339566,TRUE,2021-12-20T14:23:37.000Z
79,30,A,valid,388,2034,left_match,21.5661388,2021-12-20T14:41:22.000Z,339566,TRUE,2021-12-20T14:23:37.000Z
80,165,A,valid,385,melone,left_mismatch,21.5661388,2021-12-20T14:41:22.000Z,339566,TRUE,2021-12-20T14:23:37.000Z
81,228,,invalid,0,2039,left_mismatch,21.5661388,2021-12-20T14:41:22.000Z,339566,TRUE,2021-12-20T14:23:37.000Z
82,38,A,valid,366,2058,left_match,21.5661388,2021-12-20T14:41:22.000Z,339566,TRUE,2021-12-20T14:23:37.000Z
83,214,A,invalid,426,termometro,left_mismatch,21.5661388,2021-12-20T14:41:22.000Z,339566,TRUE,2021-12-20T14:23:37.000Z
84,281,L,invalid,427,mandorla,right_mismatch,21.5661388,2021-12-20T14:41:22.000Z,339566,TRUE,2021-12-20T14:23:37.000Z
85,85,L,valid,347,frullatore,right_match,21.5661388,2021-12-20T14:41:22.000Z,339566,TRUE,2021-12-20T14:23:37.000Z
86,65,A,invalid,328,2023,left_match,21.5661388,2021-12-20T14:41:22.000Z,339566,TRUE,2021-12-20T14:23:37.000Z
87,140,L,invalid,372,2013,right_match,21.5661388,2021-12-20T14:41:22.000Z,339566,TRUE,2021-12-20T14:23:37.000Z
88,178,A,valid,346,2010,left_mismatch,21.5661388,2021-12-20T14:41:22.000Z,339566,TRUE,2021-12-20T14:23:37.000Z
89,189,A,valid,406,2039,left_mismatch,21.5661388,2021-12-20T14:41:22.000Z,339566,TRUE,2021-12-20T14:23:37.000Z
90,279,L,invalid,363,coniglio,right_mismatch,21.5661388,2021-12-20T14:41:22.000Z,339566,TRUE,2021-12-20T14:23:37.000Z
91,209,A,invalid,336,pomodoro,left_mismatch,21.5661388,2021-12-20T14:41:22.000Z,339566,TRUE,2021-12-20T14:23:37.000Z
92,49,A,invalid,334,mucca,left_match,21.5661388,2021-12-20T14:41:22.000Z,339566,TRUE,2021-12-20T14:23:37.000Z
93,148,L,invalid,338,2036,right_match,21.5661388,2021-12-20T14:41:22.000Z,339566,TRUE,2021-12-20T14:23:37.000Z
94,308,L,invalid,360,2044,right_mismatch,21.5661388,2021-12-20T14:41:22.000Z,339566,TRUE,2021-12-20T14:23:37.000Z
95,206,A,invalid,464,occhiali,left_mismatch,21.5661388,2021-12-20T14:41:22.000Z,339566,TRUE,2021-12-20T14:23:37.000Z
96,93,L,valid,433,rasoio,right_match,21.5661388,2021-12-20T14:41:22.000Z,339566,TRUE,2021-12-20T14:23:37.000Z
97,70,A,invalid,336,2036,left_match,21.5661388,2021-12-20T14:41:22.000Z,339566,TRUE,2021-12-20T14:23:37.000Z
98,192,A,valid,368,2049,left_mismatch,21.5661388,2021-12-20T14:41:22.000Z,339566,TRUE,2021-12-20T14:23:37.000Z
99,223,A,invalid,339,2026,left_mismatch,21.5661388,2021-12-20T14:41:22.000Z,339566,TRUE,2021-12-20T14:23:37.000Z
100,82,L,valid,419,cervo,right_match,21.5661388,2021-12-20T14:41:22.000Z,339566,TRUE,2021-12-20T14:23:37.000Z
101,191,A,valid,444,2044,left_mismatch,21.5661388,2021-12-20T14:41:22.000Z,339566,TRUE,2021-12-20T14:23:37.000Z
102,27,A,valid,517,2024,left_match,21.5661388,2021-12-20T14:41:22.000Z,339566,TRUE,2021-12-20T14:23:37.000Z
103,35,A,valid,353,2044,left_match,21.5661388,2021-12-20T14:41:22.000Z,339566,TRUE,2021-12-20T14:23:37.000Z
104,266,L,valid,434,2037,right_mismatch,21.5661388,2021-12-20T14:41:22.000Z,339566,TRUE,2021-12-20T14:23:37.000Z
105,273,L,valid,422,2059,right_mismatch,21.5661388,2021-12-20T14:41:22.000Z,339566,TRUE,2021-12-20T14:23:37.000Z
106,94,L,valid,511,tartaruga,right_match,21.5661388,2021-12-20T14:41:22.000Z,339566,TRUE,2021-12-20T14:23:37.000Z
107,174,A,valid,363,telefono,left_mismatch,21.5661388,2021-12-20T14:41:22.000Z,339566,TRUE,2021-12-20T14:23:37.000Z
108,33,A,valid,429,2039,left_match,21.5661388,2021-12-20T14:41:22.000Z,339566,TRUE,2021-12-20T14:23:37.000Z
109,268,L,valid,407,2040,right_mismatch,21.5661388,2021-12-20T14:41:22.000Z,339566,TRUE,2021-12-20T14:23:37.000Z
110,294,L,invalid,423,2006,right_mismatch,21.5661388,2021-12-20T14:41:22.000Z,339566,TRUE,2021-12-20T14:23:37.000Z
111,150,L,invalid,459,2039,right_match,21.5661388,2021-12-20T14:41:22.000Z,339566,TRUE,2021-12-20T14:23:37.000Z
112,108,L,valid,429,2034,right_match,21.5661388,2021-12-20T14:41:22.000Z,339566,TRUE,2021-12-20T14:23:37.000Z
113,243,L,valid,378,melone,right_mismatch,21.5661388,2021-12-20T14:41:22.000Z,339566,TRUE,2021-12-20T14:23:37.000Z
114,72,A,invalid,415,2039,left_match,21.5661388,2021-12-20T14:41:22.000Z,339566,TRUE,2021-12-20T14:23:37.000Z
115,63,A,invalid,498,2017,left_match,21.5661388,2021-12-20T14:41:22.000Z,339566,TRUE,2021-12-20T14:23:37.000Z
116,29,A,valid,429,2030,left_match,21.5661388,2021-12-20T14:41:22.000Z,339566,TRUE,2021-12-20T14:23:37.000Z
117,203,A,invalid,428,mandorla,left_mismatch,21.5661388,2021-12-20T14:41:22.000Z,339566,TRUE,2021-12-20T14:23:37.000Z
118,67,A,invalid,528,2026,left_match,21.5661388,2021-12-20T14:41:22.000Z,339566,TRUE,2021-12-20T14:23:37.000Z
119,157,A,valid,381,banana,left_mismatch,21.5661388,2021-12-20T14:41:22.000Z,339566,TRUE,2021-12-20T14:23:37.000Z
120,91,L,valid,441,pistola,right_match,21.5661388,2021-12-20T14:41:22.000Z,339566,TRUE,2021-12-20T14:23:37.000Z
121,28,A,valid,431,2026,left_match,21.5661388,2021-12-20T14:41:22.000Z,339566,TRUE,2021-12-20T14:23:37.000Z
122,50,A,invalid,419,occhiali,left_match,21.5661388,2021-12-20T14:41:22.000Z,339566,TRUE,2021-12-20T14:23:37.000Z
123,60,A,invalid,444,2006,left_match,21.5661388,2021-12-20T14:41:22.000Z,339566,TRUE,2021-12-20T14:23:37.000Z
124,264,L,valid,325,2034,right_mismatch,21.5661388,2021-12-20T14:41:22.000Z,339566,TRUE,2021-12-20T14:23:37.000Z
125,164,A,valid,366,mandorla,left_mismatch,21.5661388,2021-12-20T14:41:22.000Z,339566,TRUE,2021-12-20T14:23:37.000Z
126,280,L,invalid,342,frullatore,right_mismatch,21.5661388,2021-12-20T14:41:22.000Z,339566,TRUE,2021-12-20T14:23:37.000Z
127,81,L,valid,364,cane,right_match,21.5661388,2021-12-20T14:41:22.000Z,339566,TRUE,2021-12-20T14:23:37.000Z
128,42,A,invalid,355,cane,left_match,21.5661388,2021-12-20T14:41:22.000Z,339566,TRUE,2021-12-20T14:23:37.000Z
129,177,A,valid,434,2006,left_mismatch,21.5661388,2021-12-20T14:41:22.000Z,339566,TRUE,2021-12-20T14:23:37.000Z
130,247,L,valid,575,pistola,right_mismatch,21.5661388,2021-12-20T14:41:22.000Z,339566,TRUE,2021-12-20T14:23:37.000Z
131,68,A,invalid,426,2030,left_match,21.5661388,2021-12-20T14:41:22.000Z,339566,TRUE,2021-12-20T14:23:37.000Z
132,104,L,valid,387,2023,right_match,21.5661388,2021-12-20T14:41:22.000Z,339566,TRUE,2021-12-20T14:23:37.000Z
133,102,L,valid,432,2017,right_match,21.5661388,2021-12-20T14:41:22.000Z,339566,TRUE,2021-12-20T14:23:37.000Z
134,113,L,valid,429,2044,right_match,21.5661388,2021-12-20T14:41:22.000Z,339566,TRUE,2021-12-20T14:23:37.000Z
135,64,A,invalid,351,2019,left_match,21.5661388,2021-12-20T14:41:22.000Z,339566,TRUE,2021-12-20T14:23:37.000Z
136,99,L,valid,397,2006,right_match,21.5661388,2021-12-20T14:41:22.000Z,339566,TRUE,2021-12-20T14:23:37.000Z
137,265,L,valid,360,2036,right_mismatch,21.5661388,2021-12-20T14:41:22.000Z,339566,TRUE,2021-12-20T14:23:37.000Z
138,193,A,valid,361,2052,left_mismatch,21.5661388,2021-12-20T14:41:22.000Z,339566,TRUE,2021-12-20T14:23:37.000Z
139,227,A,invalid,363,2037,left_mismatch,21.5661388,2021-12-20T14:41:22.000Z,339566,TRUE,2021-12-20T14:23:37.000Z
140,190,A,valid,351,2040,left_mismatch,21.5661388,2021-12-20T14:41:22.000Z,339566,TRUE,2021-12-20T14:23:37.000Z
141,297,L,invalid,436,2017,right_mismatch,21.5661388,2021-12-20T14:41:22.000Z,339566,TRUE,2021-12-20T14:23:37.000Z
142,229,A,invalid,395,2040,left_mismatch,21.5661388,2021-12-20T14:41:22.000Z,339566,TRUE,2021-12-20T14:23:37.000Z
143,149,L,invalid,336,2037,right_match,21.5661388,2021-12-20T14:41:22.000Z,339566,TRUE,2021-12-20T14:23:37.000Z
144,34,A,valid,427,2040,left_match,21.5661388,2021-12-20T14:41:22.000Z,339566,TRUE,2021-12-20T14:23:37.000Z
1,1,,,,,,,2021-12-20T14:41:22.000Z,339566,TRUE,2021-12-20T14:23:37.000Z
1,1,,,,,,,2021-12-20T14:41:22.000Z,339566,TRUE,2021-12-20T14:23:37.000Z
1,1,,,,,,,2021-12-20T14:41:25.000Z,339562,TRUE,2021-12-20T14:22:25.000Z
1,251,L,valid,452,telecomando,right_mismatch,36.54897054,2021-12-20T14:41:25.000Z,339562,TRUE,2021-12-20T14:22:25.000Z
2,228,A,invalid,660,2039,left_mismatch,36.54897054,2021-12-20T14:41:25.000Z,339562,TRUE,2021-12-20T14:22:25.000Z
3,146,L,invalid,700,2030,right_match,36.54897054,2021-12-20T14:41:25.000Z,339562,TRUE,2021-12-20T14:22:25.000Z
4,177,A,valid,726,2006,left_mismatch,36.54897054,2021-12-20T14:41:25.000Z,339562,TRUE,2021-12-20T14:22:25.000Z
5,226,A,invalid,465,2036,left_mismatch,36.54897054,2021-12-20T14:41:25.000Z,339562,TRUE,2021-12-20T14:22:25.000Z
6,244,L,valid,465,mucca,right_mismatch,36.54897054,2021-12-20T14:41:25.000Z,339562,TRUE,2021-12-20T14:22:25.000Z
7,225,A,invalid,458,2034,left_mismatch,36.54897054,2021-12-20T14:41:25.000Z,339562,TRUE,2021-12-20T14:22:25.000Z
8,293,L,invalid,448,uva,right_mismatch,36.54897054,2021-12-20T14:41:25.000Z,339562,TRUE,2021-12-20T14:22:25.000Z
9,167,A,valid,472,occhiali,left_mismatch,36.54897054,2021-12-20T14:41:25.000Z,339562,TRUE,2021-12-20T14:22:25.000Z
10,83,L,valid,591,chiave,right_match,36.54897054,2021-12-20T14:41:25.000Z,339562,TRUE,2021-12-20T14:22:25.000Z
11,82,L,valid,545,cervo,right_match,36.54897054,2021-12-20T14:41:25.000Z,339562,TRUE,2021-12-20T14:22:25.000Z
12,278,L,invalid,460,chiave,right_mismatch,36.54897054,2021-12-20T14:41:25.000Z,339562,TRUE,2021-12-20T14:22:25.000Z
13,109,L,valid,471,2036,right_match,36.54897054,2021-12-20T14:41:25.000Z,339562,TRUE,2021-12-20T14:22:25.000Z
14,182,A,valid,671,2023,left_mismatch,36.54897054,2021-12-20T14:41:25.000Z,339562,TRUE,2021-12-20T14:22:25.000Z
15,142,L,invalid,632,2019,right_match,36.54897054,2021-12-20T14:41:25.000Z,339562,TRUE,2021-12-20T14:22:25.000Z
16,89,L,valid,487,occhiali,right_match,36.54897054,2021-12-20T14:41:25.000Z,339562,TRUE,2021-12-20T14:22:25.000Z
17,310,L,invalid,467,2052,right_mismatch,36.54897054,2021-12-20T14:41:25.000Z,339562,TRUE,2021-12-20T14:22:25.000Z
18,241,L,valid,471,frullatore,right_mismatch,36.54897054,2021-12-20T14:41:25.000Z,339562,TRUE,2021-12-20T14:22:25.000Z
19,96,L,valid,472,telefono,right_match,36.54897054,2021-12-20T14:41:25.000Z,339562,TRUE,2021-12-20T14:22:25.000Z
20,299,L,invalid,465,2023,right_mismatch,36.54897054,2021-12-20T14:41:25.000Z,339562,TRUE,2021-12-20T14:22:25.000Z
21,282,L,invalid,480,melone,right_mismatch,36.54897054,2021-12-20T14:41:25.000Z,339562,TRUE,2021-12-20T14:22:25.000Z
22,149,L,invalid,473,2037,right_match,36.54897054,2021-12-20T14:41:25.000Z,339562,TRUE,2021-12-20T14:22:25.000Z
23,94,L,valid,469,tartaruga,right_match,36.54897054,2021-12-20T14:41:25.000Z,339562,TRUE,2021-12-20T14:22:25.000Z
24,237,L,valid,680,cane,right_mismatch,36.54897054,2021-12-20T14:41:25.000Z,339562,TRUE,2021-12-20T14:22:25.000Z
25,254,L,valid,441,uva,right_mismatch,36.54897054,2021-12-20T14:41:25.000Z,339562,TRUE,2021-12-20T14:22:25.000Z
26,168,A,valid,559,pinza,left_mismatch,36.54897054,2021-12-20T14:41:25.000Z,339562,TRUE,2021-12-20T14:22:25.000Z
27,11,A,valid,471,occhiali,left_match,36.54897054,2021-12-20T14:41:25.000Z,339562,TRUE,2021-12-20T14:22:25.000Z
28,92,L,valid,476,pomodoro,right_match,36.54897054,2021-12-20T14:41:25.000Z,339562,TRUE,2021-12-20T14:22:25.000Z
29,152,L,invalid,481,2044,right_match,36.54897054,2021-12-20T14:41:25.000Z,339562,TRUE,2021-12-20T14:22:25.000Z
30,130,L,invalid,345,pistola,right_match,36.54897054,2021-12-20T14:41:25.000Z,339562,TRUE,2021-12-20T14:22:25.000Z
31,180,A,valid,473,2017,left_mismatch,36.54897054,2021-12-20T14:41:25.000Z,339562,TRUE,2021-12-20T14:22:25.000Z
32,135,L,invalid,467,telefono,right_match,36.54897054,2021-12-20T14:41:25.000Z,339562,TRUE,2021-12-20T14:22:25.000Z
33,21,A,valid,427,2006,left_match,36.54897054,2021-12-20T14:41:25.000Z,339562,TRUE,2021-12-20T14:22:25.000Z
34,137,L,invalid,439,uva,right_match,36.54897054,2021-12-20T14:41:25.000Z,339562,TRUE,2021-12-20T14:22:25.000Z
35,257,L,valid,468,2013,right_mismatch,36.54897054,2021-12-20T14:41:25.000Z,339562,TRUE,2021-12-20T14:22:25.000Z
36,301,L,invalid,479,2026,right_mismatch,36.54897054,2021-12-20T14:41:25.000Z,339562,TRUE,2021-12-20T14:22:25.000Z
37,262,L,valid,681,2026,right_mismatch,36.54897054,2021-12-20T14:41:25.000Z,339562,TRUE,2021-12-20T14:22:25.000Z
38,285,A,invalid,245,pinza,right_mismatch,36.54897054,2021-12-20T14:41:25.000Z,339562,TRUE,2021-12-20T14:22:25.000Z
39,260,L,valid,471,2023,right_mismatch,36.54897054,2021-12-20T14:41:25.000Z,339562,TRUE,2021-12-20T14:22:25.000Z
40,42,A,invalid,434,cane,left_match,36.54897054,2021-12-20T14:41:25.000Z,339562,TRUE,2021-12-20T14:22:25.000Z
41,148,L,invalid,694,2036,right_match,36.54897054,2021-12-20T14:41:25.000Z,339562,TRUE,2021-12-20T14:22:25.000Z
42,67,A,invalid,434,2026,left_match,36.54897054,2021-12-20T14:41:25.000Z,339562,TRUE,2021-12-20T14:22:25.000Z
43,215,A,invalid,429,uva,left_mismatch,36.54897054,2021-12-20T14:41:25.000Z,339562,TRUE,2021-12-20T14:22:25.000Z
44,159,A,valid,446,cane,left_mismatch,36.54897054,2021-12-20T14:41:25.000Z,339562,TRUE,2021-12-20T14:22:25.000Z
45,292,L,invalid,467,termometro,right_mismatch,36.54897054,2021-12-20T14:41:25.000Z,339562,TRUE,2021-12-20T14:22:25.000Z
46,132,L,invalid,467,rasoio,right_match,36.54897054,2021-12-20T14:41:25.000Z,339562,TRUE,2021-12-20T14:22:25.000Z
47,84,L,valid,442,coniglio,right_match,36.54897054,2021-12-20T14:41:25.000Z,339562,TRUE,2021-12-20T14:22:25.000Z
48,55,A,invalid,465,tartaruga,left_match,36.54897054,2021-12-20T14:41:25.000Z,339562,TRUE,2021-12-20T14:22:25.000Z
49,110,L,valid,447,2037,right_match,36.54897054,2021-12-20T14:41:25.000Z,339562,TRUE,2021-12-20T14:22:25.000Z
50,176,A,valid,472,uva,left_mismatch,36.54897054,2021-12-20T14:41:25.000Z,339562,TRUE,2021-12-20T14:22:25.000Z
51,270,L,valid,451,2049,right_mismatch,36.54897054,2021-12-20T14:41:25.000Z,339562,TRUE,2021-12-20T14:22:25.000Z
52,196,A,invalid,452,banana,left_mismatch,36.54897054,2021-12-20T14:41:25.000Z,339562,TRUE,2021-12-20T14:22:25.000Z
53,70,A,invalid,475,2036,left_match,36.54897054,2021-12-20T14:41:25.000Z,339562,TRUE,2021-12-20T14:22:25.000Z
54,283,L,invalid,480,mucca,right_mismatch,36.54897054,2021-12-20T14:41:25.000Z,339562,TRUE,2021-12-20T14:22:25.000Z
55,43,A,invalid,448,cervo,left_match,36.54897054,2021-12-20T14:41:25.000Z,339562,TRUE,2021-12-20T14:22:25.000Z
56,240,L,valid,431,coniglio,right_mismatch,36.54897054,2021-12-20T14:41:25.000Z,339562,TRUE,2021-12-20T14:22:25.000Z
57,16,A,valid,461,tartaruga,left_match,36.54897054,2021-12-20T14:41:25.000Z,339562,TRUE,2021-12-20T14:22:25.000Z
58,169,A,valid,466,pistola,left_mismatch,36.54897054,2021-12-20T14:41:25.000Z,339562,TRUE,2021-12-20T14:22:25.000Z
59,4,A,valid,638,cervo,left_match,36.54897054,2021-12-20T14:41:25.000Z,339562,TRUE,2021-12-20T14:22:25.000Z
60,69,A,invalid,453,2034,left_match,36.54897054,2021-12-20T14:41:25.000Z,339562,TRUE,2021-12-20T14:22:25.000Z
61,56,A,invalid,477,telecomando,left_match,36.54897054,2021-12-20T14:41:25.000Z,339562,TRUE,2021-12-20T14:22:25.000Z
62,134,L,invalid,471,telecomando,right_match,36.54897054,2021-12-20T14:41:25.000Z,339562,TRUE,2021-12-20T14:22:25.000Z
63,243,L,valid,422,melone,right_mismatch,36.54897054,2021-12-20T14:41:25.000Z,339562,TRUE,2021-12-20T14:22:25.000Z
64,81,L,valid,462,cane,right_match,36.54897054,2021-12-20T14:41:25.000Z,339562,TRUE,2021-12-20T14:22:25.000Z
65,153,L,invalid,684,2049,right_match,36.54897054,2021-12-20T14:41:25.000Z,339562,TRUE,2021-12-20T14:22:25.000Z
66,17,A,valid,453,telecomando,left_match,36.54897054,2021-12-20T14:41:25.000Z,339562,TRUE,2021-12-20T14:22:25.000Z
67,307,L,invalid,443,2040,right_mismatch,36.54897054,2021-12-20T14:41:25.000Z,339562,TRUE,2021-12-20T14:22:25.000Z
68,54,L,invalid,17,rasoio,left_match,36.54897054,2021-12-20T14:41:25.000Z,339562,TRUE,2021-12-20T14:22:25.000Z
69,59,A,invalid,454,uva,left_match,36.54897054,2021-12-20T14:41:25.000Z,339562,TRUE,2021-12-20T14:22:25.000Z
70,124,L,invalid,447,frullatore,right_match,36.54897054,2021-12-20T14:41:25.000Z,339562,TRUE,2021-12-20T14:22:25.000Z
71,9,A,valid,471,melone,left_match,36.54897054,2021-12-20T14:41:25.000Z,339562,TRUE,2021-12-20T14:22:25.000Z
72,305,L,invalid,503,2037,right_mismatch,36.54897054,2021-12-20T14:41:25.000Z,339562,TRUE,2021-12-20T14:22:25.000Z
73,261,L,valid,423,2024,right_mismatch,36.54897054,2021-12-20T14:41:25.000Z,339562,TRUE,2021-12-20T14:22:25.000Z
74,113,L,valid,443,2044,right_match,36.54897054,2021-12-20T14:41:25.000Z,339562,TRUE,2021-12-20T14:22:25.000Z
75,191,A,valid,469,2044,left_mismatch,36.54897054,2021-12-20T14:41:25.000Z,339562,TRUE,2021-12-20T14:22:25.000Z
76,256,L,valid,489,2010,right_mismatch,36.54897054,2021-12-20T14:41:25.000Z,339562,TRUE,2021-12-20T14:22:25.000Z
77,65,A,invalid,457,2023,left_match,36.54897054,2021-12-20T14:41:25.000Z,339562,TRUE,2021-12-20T14:22:25.000Z
78,102,L,valid,669,2017,right_match,36.54897054,2021-12-20T14:41:25.000Z,339562,TRUE,2021-12-20T14:22:25.000Z
79,238,L,valid,441,cervo,right_mismatch,36.54897054,2021-12-20T14:41:25.000Z,339562,TRUE,2021-12-20T14:22:25.000Z
80,104,L,valid,436,2023,right_match,36.54897054,2021-12-20T14:41:25.000Z,339562,TRUE,2021-12-20T14:22:25.000Z
81,279,L,invalid,463,coniglio,right_mismatch,36.54897054,2021-12-20T14:41:25.000Z,339562,TRUE,2021-12-20T14:22:25.000Z
82,78,A,invalid,464,2059,left_match,36.54897054,2021-12-20T14:41:25.000Z,339562,TRUE,2021-12-20T14:22:25.000Z
83,46,L,invalid,15,frullatore,left_match,36.54897054,2021-12-20T14:41:25.000Z,339562,TRUE,2021-12-20T14:22:25.000Z
84,245,L,valid,453,occhiali,right_mismatch,36.54897054,2021-12-20T14:41:25.000Z,339562,TRUE,2021-12-20T14:22:25.000Z
85,139,L,invalid,438,2010,right_match,36.54897054,2021-12-20T14:41:25.000Z,339562,TRUE,2021-12-20T14:22:25.000Z
86,232,A,invalid,470,2052,left_mismatch,36.54897054,2021-12-20T14:41:25.000Z,339562,TRUE,2021-12-20T14:22:25.000Z
87,85,L,valid,440,frullatore,right_match,36.54897054,2021-12-20T14:41:25.000Z,339562,TRUE,2021-12-20T14:22:25.000Z
88,288,L,invalid,494,rasoio,right_mismatch,36.54897054,2021-12-20T14:41:25.000Z,339562,TRUE,2021-12-20T14:22:25.000Z
89,242,L,valid,459,mandorla,right_mismatch,36.54897054,2021-12-20T14:41:25.000Z,339562,TRUE,2021-12-20T14:22:25.000Z
90,41,A,invalid,444,bicchiere,left_match,36.54897054,2021-12-20T14:41:25.000Z,339562,TRUE,2021-12-20T14:22:25.000Z
91,98,L,valid,475,uva,right_match,36.54897054,2021-12-20T14:41:25.000Z,339562,TRUE,2021-12-20T14:22:25.000Z
92,119,L,invalid,461,bicchiere,right_match,36.54897054,2021-12-20T14:41:25.000Z,339562,TRUE,2021-12-20T14:22:25.000Z
93,52,A,invalid,473,pistola,left_match,36.54897054,2021-12-20T14:41:25.000Z,339562,TRUE,2021-12-20T14:22:25.000Z
94,259,L,valid,464,2019,right_mismatch,36.54897054,2021-12-20T14:41:25.000Z,339562,TRUE,2021-12-20T14:22:25.000Z
95,274,L,invalid,456,banana,right_mismatch,36.54897054,2021-12-20T14:41:25.000Z,339562,TRUE,2021-12-20T14:22:25.000Z
96,290,L,invalid,457,telecomando,right_mismatch,36.54897054,2021-12-20T14:41:25.000Z,339562,TRUE,2021-12-20T14:22:25.000Z
97,122,L,invalid,469,chiave,right_match,36.54897054,2021-12-20T14:41:25.000Z,339562,TRUE,2021-12-20T14:22:25.000Z
98,29,A,valid,692,2030,left_match,36.54897054,2021-12-20T14:41:25.000Z,339562,TRUE,2021-12-20T14:22:25.000Z
99,171,A,valid,454,rasoio,left_mismatch,36.54897054,2021-12-20T14:41:25.000Z,339562,TRUE,2021-12-20T14:22:25.000Z
100,72,L,invalid,22,2039,left_match,36.54897054,2021-12-20T14:41:25.000Z,339562,TRUE,2021-12-20T14:22:25.000Z
101,1,A,valid,436,banana,left_match,36.54897054,2021-12-20T14:41:25.000Z,339562,TRUE,2021-12-20T14:22:25.000Z
102,211,A,invalid,516,tartaruga,left_mismatch,36.54897054,2021-12-20T14:41:25.000Z,339562,TRUE,2021-12-20T14:22:25.000Z
103,39,A,valid,540,2059,left_match,36.54897054,2021-12-20T14:41:25.000Z,339562,TRUE,2021-12-20T14:22:25.000Z
104,2,A,valid,448,bicchiere,left_match,36.54897054,2021-12-20T14:41:25.000Z,339562,TRUE,2021-12-20T14:22:25.000Z
105,178,A,valid,442,2010,left_mismatch,36.54897054,2021-12-20T14:41:25.000Z,339562,TRUE,2021-12-20T14:22:25.000Z
106,192,A,valid,497,2049,left_mismatch,36.54897054,2021-12-20T14:41:25.000Z,339562,TRUE,2021-12-20T14:22:25.000Z
107,49,A,invalid,443,mucca,left_match,36.54897054,2021-12-20T14:41:25.000Z,339562,TRUE,2021-12-20T14:22:25.000Z
108,234,A,invalid,444,2059,left_mismatch,36.54897054,2021-12-20T14:41:25.000Z,339562,TRUE,2021-12-20T14:22:25.000Z
109,255,L,valid,463,2006,right_mismatch,36.54897054,2021-12-20T14:41:25.000Z,339562,TRUE,2021-12-20T14:22:25.000Z
110,213,A,invalid,470,telefono,left_mismatch,36.54897054,2021-12-20T14:41:25.000Z,339562,TRUE,2021-12-20T14:22:25.000Z
111,294,L,invalid,435,2006,right_mismatch,36.54897054,2021-12-20T14:41:25.000Z,339562,TRUE,2021-12-20T14:22:25.000Z
112,287,L,invalid,502,pomodoro,right_mismatch,36.54897054,2021-12-20T14:41:25.000Z,339562,TRUE,2021-12-20T14:22:25.000Z
113,23,A,valid,458,2013,left_match,36.54897054,2021-12-20T14:41:25.000Z,339562,TRUE,2021-12-20T14:22:25.000Z
114,128,L,invalid,492,occhiali,right_match,36.54897054,2021-12-20T14:41:25.000Z,339562,TRUE,2021-12-20T14:22:25.000Z
115,86,L,valid,465,mandorla,right_match,36.54897054,2021-12-20T14:41:25.000Z,339562,TRUE,2021-12-20T14:22:25.000Z
116,267,L,valid,541,2039,right_mismatch,36.54897054,2021-12-20T14:41:25.000Z,339562,TRUE,2021-12-20T14:22:25.000Z
117,203,A,invalid,456,mandorla,left_mismatch,36.54897054,2021-12-20T14:41:25.000Z,339562,TRUE,2021-12-20T14:22:25.000Z
118,224,A,invalid,444,2030,left_mismatch,36.54897054,2021-12-20T14:41:25.000Z,339562,TRUE,2021-12-20T14:22:25.000Z
119,309,L,invalid,469,2049,right_mismatch,36.54897054,2021-12-20T14:41:25.000Z,339562,TRUE,2021-12-20T14:22:25.000Z
120,91,L,valid,458,pistola,right_match,36.54897054,2021-12-20T14:41:25.000Z,339562,TRUE,2021-12-20T14:22:25.000Z
121,76,A,invalid,462,2052,left_match,36.54897054,2021-12-20T14:41:25.000Z,339562,TRUE,2021-12-20T14:22:25.000Z
122,229,A,invalid,430,2040,left_mismatch,36.54897054,2021-12-20T14:41:25.000Z,339562,TRUE,2021-12-20T14:22:25.000Z
123,157,A,valid,437,banana,left_mismatch,36.54897054,2021-12-20T14:41:25.000Z,339562,TRUE,2021-12-20T14:22:25.000Z
124,173,A,valid,445,telecomando,left_mismatch,36.54897054,2021-12-20T14:41:25.000Z,339562,TRUE,2021-12-20T14:22:25.000Z
125,280,L,invalid,463,frullatore,right_mismatch,36.54897054,2021-12-20T14:41:25.000Z,339562,TRUE,2021-12-20T14:22:25.000Z
126,266,L,valid,825,2037,right_mismatch,36.54897054,2021-12-20T14:41:25.000Z,339562,TRUE,2021-12-20T14:22:25.000Z
127,198,A,invalid,465,cane,left_mismatch,36.54897054,2021-12-20T14:41:25.000Z,339562,TRUE,2021-12-20T14:22:25.000Z
128,223,A,invalid,447,2026,left_mismatch,36.54897054,2021-12-20T14:41:25.000Z,339562,TRUE,2021-12-20T14:22:25.000Z
129,12,A,valid,487,pinza,left_match,36.54897054,2021-12-20T14:41:25.000Z,339562,TRUE,2021-12-20T14:22:25.000Z
130,217,A,invalid,454,2010,left_mismatch,36.54897054,2021-12-20T14:41:25.000Z,339562,TRUE,2021-12-20T14:22:25.000Z
131,200,A,invalid,442,chiave,left_mismatch,36.54897054,2021-12-20T14:41:25.000Z,339562,TRUE,2021-12-20T14:22:25.000Z
132,147,L,invalid,454,2034,right_match,36.54897054,2021-12-20T14:41:25.000Z,339562,TRUE,2021-12-20T14:22:25.000Z
133,75,A,invalid,876,2049,left_match,36.54897054,2021-12-20T14:41:25.000Z,339562,TRUE,2021-12-20T14:22:25.000Z
134,45,A,invalid,504,coniglio,left_match,36.54897054,2021-12-20T14:41:25.000Z,339562,TRUE,2021-12-20T14:22:25.000Z
135,115,L,valid,480,2052,right_match,36.54897054,2021-12-20T14:41:25.000Z,339562,TRUE,2021-12-20T14:22:25.000Z
136,197,A,invalid,437,bicchiere,left_mismatch,36.54897054,2021-12-20T14:41:25.000Z,339562,TRUE,2021-12-20T14:22:25.000Z
137,145,L,invalid,468,2026,right_match,36.54897054,2021-12-20T14:41:25.000Z,339562,TRUE,2021-12-20T14:22:25.000Z
138,172,A,valid,474,tartaruga,left_mismatch,36.54897054,2021-12-20T14:41:25.000Z,339562,TRUE,2021-12-20T14:22:25.000Z
139,123,A,invalid,458,coniglio,right_match,36.54897054,2021-12-20T14:41:25.000Z,339562,TRUE,2021-12-20T14:22:25.000Z
140,8,A,valid,454,mandorla,left_match,36.54897054,2021-12-20T14:41:25.000Z,339562,TRUE,2021-12-20T14:22:25.000Z
141,117,L,valid,408,2059,right_match,36.54897054,2021-12-20T14:41:25.000Z,339562,TRUE,2021-12-20T14:22:25.000Z
142,300,L,invalid,449,2024,right_mismatch,36.54897054,2021-12-20T14:41:25.000Z,339562,TRUE,2021-12-20T14:22:25.000Z
143,166,A,valid,461,mucca,left_mismatch,36.54897054,2021-12-20T14:41:25.000Z,339562,TRUE,2021-12-20T14:22:25.000Z
144,107,L,valid,466,2030,right_match,36.54897054,2021-12-20T14:41:25.000Z,339562,TRUE,2021-12-20T14:22:25.000Z
1,1,,,,,,,2021-12-20T14:41:25.000Z,339562,TRUE,2021-12-20T14:22:25.000Z
1,1,,,,,,,2021-12-20T14:41:25.000Z,339562,TRUE,2021-12-20T14:22:25.000Z
1,1,,,,,,,2021-12-20T14:40:20.000Z,339554,TRUE,2021-12-20T14:10:29.000Z
1,103,L,valid,940,2019,right_match,107.8040759,2021-12-20T14:40:20.000Z,339554,TRUE,2021-12-20T14:10:29.000Z
2,234,A,invalid,548,2059,left_mismatch,107.8040759,2021-12-20T14:40:20.000Z,339554,TRUE,2021-12-20T14:10:29.000Z
3,12,A,valid,563,pinza,left_match,107.8040759,2021-12-20T14:40:20.000Z,339554,TRUE,2021-12-20T14:10:29.000Z
4,198,A,invalid,538,cane,left_mismatch,107.8040759,2021-12-20T14:40:20.000Z,339554,TRUE,2021-12-20T14:10:29.000Z
5,44,A,invalid,560,chiave,left_match,107.8040759,2021-12-20T14:40:20.000Z,339554,TRUE,2021-12-20T14:10:29.000Z
6,269,L,valid,570,2044,right_mismatch,107.8040759,2021-12-20T14:40:20.000Z,339554,TRUE,2021-12-20T14:10:29.000Z
7,140,L,invalid,542,2013,right_match,107.8040759,2021-12-20T14:40:20.000Z,339554,TRUE,2021-12-20T14:10:29.000Z
8,127,L,invalid,629,mucca,right_match,107.8040759,2021-12-20T14:40:20.000Z,339554,TRUE,2021-12-20T14:10:29.000Z
9,135,L,invalid,699,telefono,right_match,107.8040759,2021-12-20T14:40:20.000Z,339554,TRUE,2021-12-20T14:10:29.000Z
10,62,A,invalid,659,2013,left_match,107.8040759,2021-12-20T14:40:20.000Z,339554,TRUE,2021-12-20T14:10:29.000Z
11,28,A,valid,762,2026,left_match,107.8040759,2021-12-20T14:40:20.000Z,339554,TRUE,2021-12-20T14:10:29.000Z
12,85,L,valid,729,frullatore,right_match,107.8040759,2021-12-20T14:40:20.000Z,339554,TRUE,2021-12-20T14:10:29.000Z
13,217,A,invalid,606,2010,left_mismatch,107.8040759,2021-12-20T14:40:20.000Z,339554,TRUE,2021-12-20T14:10:29.000Z
14,154,L,invalid,776,2052,right_match,107.8040759,2021-12-20T14:40:20.000Z,339554,TRUE,2021-12-20T14:10:29.000Z
15,261,L,valid,784,2024,right_mismatch,107.8040759,2021-12-20T14:40:20.000Z,339554,TRUE,2021-12-20T14:10:29.000Z
16,200,A,invalid,782,chiave,left_mismatch,107.8040759,2021-12-20T14:40:20.000Z,339554,TRUE,2021-12-20T14:10:29.000Z
17,208,A,invalid,643,pistola,left_mismatch,107.8040759,2021-12-20T14:40:20.000Z,339554,TRUE,2021-12-20T14:10:29.000Z
18,231,A,invalid,641,2049,left_mismatch,107.8040759,2021-12-20T14:40:20.000Z,339554,TRUE,2021-12-20T14:10:29.000Z
19,180,A,valid,347,2017,left_mismatch,107.8040759,2021-12-20T14:40:20.000Z,339554,TRUE,2021-12-20T14:10:29.000Z
20,179,A,valid,593,2013,left_mismatch,107.8040759,2021-12-20T14:40:20.000Z,339554,TRUE,2021-12-20T14:10:29.000Z
21,2,A,valid,856,bicchiere,left_match,107.8040759,2021-12-20T14:40:20.000Z,339554,TRUE,2021-12-20T14:10:29.000Z
22,311,L,invalid,642,2058,right_mismatch,107.8040759,2021-12-20T14:40:20.000Z,339554,TRUE,2021-12-20T14:10:29.000Z
23,249,L,valid,739,rasoio,right_mismatch,107.8040759,2021-12-20T14:40:20.000Z,339554,TRUE,2021-12-20T14:10:29.000Z
24,74,A,invalid,847,2044,left_match,107.8040759,2021-12-20T14:40:20.000Z,339554,TRUE,2021-12-20T14:10:29.000Z
25,13,A,valid,570,pistola,left_match,107.8040759,2021-12-20T14:40:20.000Z,339554,TRUE,2021-12-20T14:10:29.000Z
26,18,A,valid,442,telefono,left_match,107.8040759,2021-12-20T14:40:20.000Z,339554,TRUE,2021-12-20T14:10:29.000Z
27,63,L,invalid,216,2017,left_match,107.8040759,2021-12-20T14:40:20.000Z,339554,TRUE,2021-12-20T14:10:29.000Z
28,78,A,invalid,533,2059,left_match,107.8040759,2021-12-20T14:40:20.000Z,339554,TRUE,2021-12-20T14:10:29.000Z
29,5,A,valid,548,chiave,left_match,107.8040759,2021-12-20T14:40:20.000Z,339554,TRUE,2021-12-20T14:10:29.000Z
30,122,L,invalid,633,chiave,right_match,107.8040759,2021-12-20T14:40:20.000Z,339554,TRUE,2021-12-20T14:10:29.000Z
31,172,A,valid,569,tartaruga,left_mismatch,107.8040759,2021-12-20T14:40:20.000Z,339554,TRUE,2021-12-20T14:10:29.000Z
32,55,A,invalid,666,tartaruga,left_match,107.8040759,2021-12-20T14:40:20.000Z,339554,TRUE,2021-12-20T14:10:29.000Z
33,54,A,invalid,601,rasoio,left_match,107.8040759,2021-12-20T14:40:20.000Z,339554,TRUE,2021-12-20T14:10:29.000Z
34,15,A,valid,528,rasoio,left_match,107.8040759,2021-12-20T14:40:20.000Z,339554,TRUE,2021-12-20T14:10:29.000Z
35,76,A,invalid,634,2052,left_match,107.8040759,2021-12-20T14:40:20.000Z,339554,TRUE,2021-12-20T14:10:29.000Z
36,187,A,valid,661,2036,left_mismatch,107.8040759,2021-12-20T14:40:20.000Z,339554,TRUE,2021-12-20T14:10:29.000Z
37,149,L,invalid,659,2037,right_match,107.8040759,2021-12-20T14:40:20.000Z,339554,TRUE,2021-12-20T14:10:29.000Z
38,97,L,valid,493,termometro,right_match,107.8040759,2021-12-20T14:40:20.000Z,339554,TRUE,2021-12-20T14:10:29.000Z
39,133,L,invalid,695,tartaruga,right_match,107.8040759,2021-12-20T14:40:20.000Z,339554,TRUE,2021-12-20T14:10:29.000Z
40,253,L,valid,550,termometro,right_mismatch,107.8040759,2021-12-20T14:40:20.000Z,339554,TRUE,2021-12-20T14:10:29.000Z
41,110,L,valid,647,2037,right_match,107.8040759,2021-12-20T14:40:20.000Z,339554,TRUE,2021-12-20T14:10:29.000Z
42,40,A,invalid,780,banana,left_match,107.8040759,2021-12-20T14:40:20.000Z,339554,TRUE,2021-12-20T14:10:29.000Z
43,67,A,invalid,685,2026,left_match,107.8040759,2021-12-20T14:40:20.000Z,339554,TRUE,2021-12-20T14:10:29.000Z
44,236,L,valid,646,bicchiere,right_mismatch,107.8040759,2021-12-20T14:40:20.000Z,339554,TRUE,2021-12-20T14:10:29.000Z
45,176,A,valid,638,uva,left_mismatch,107.8040759,2021-12-20T14:40:20.000Z,339554,TRUE,2021-12-20T14:10:29.000Z
46,136,L,invalid,563,termometro,right_match,107.8040759,2021-12-20T14:40:20.000Z,339554,TRUE,2021-12-20T14:10:29.000Z
47,268,L,valid,543,2040,right_mismatch,107.8040759,2021-12-20T14:40:20.000Z,339554,TRUE,2021-12-20T14:10:29.000Z
48,215,A,invalid,472,uva,left_mismatch,107.8040759,2021-12-20T14:40:20.000Z,339554,TRUE,2021-12-20T14:10:29.000Z
49,47,A,invalid,762,mandorla,left_match,107.8040759,2021-12-20T14:40:20.000Z,339554,TRUE,2021-12-20T14:10:29.000Z
50,239,L,valid,683,chiave,right_mismatch,107.8040759,2021-12-20T14:40:20.000Z,339554,TRUE,2021-12-20T14:10:29.000Z
51,278,L,invalid,735,chiave,right_mismatch,107.8040759,2021-12-20T14:40:20.000Z,339554,TRUE,2021-12-20T14:10:29.000Z
52,68,A,invalid,675,2030,left_match,107.8040759,2021-12-20T14:40:20.000Z,339554,TRUE,2021-12-20T14:10:29.000Z
53,31,A,valid,656,2036,left_match,107.8040759,2021-12-20T14:40:20.000Z,339554,TRUE,2021-12-20T14:10:29.000Z
54,73,A,invalid,629,2040,left_match,107.8040759,2021-12-20T14:40:20.000Z,339554,TRUE,2021-12-20T14:10:29.000Z
55,301,L,invalid,574,2026,right_mismatch,107.8040759,2021-12-20T14:40:20.000Z,339554,TRUE,2021-12-20T14:10:29.000Z
56,302,L,invalid,665,2030,right_mismatch,107.8040759,2021-12-20T14:40:20.000Z,339554,TRUE,2021-12-20T14:10:29.000Z
57,4,A,valid,495,cervo,left_match,107.8040759,2021-12-20T14:40:20.000Z,339554,TRUE,2021-12-20T14:10:29.000Z
58,142,L,invalid,576,2019,right_match,107.8040759,2021-12-20T14:40:20.000Z,339554,TRUE,2021-12-20T14:10:29.000Z
59,65,A,invalid,554,2023,left_match,107.8040759,2021-12-20T14:40:20.000Z,339554,TRUE,2021-12-20T14:10:29.000Z
60,105,L,valid,579,2024,right_match,107.8040759,2021-12-20T14:40:20.000Z,339554,TRUE,2021-12-20T14:10:29.000Z
61,89,L,valid,513,occhiali,right_match,107.8040759,2021-12-20T14:40:20.000Z,339554,TRUE,2021-12-20T14:10:29.000Z
62,39,A,valid,412,2059,left_match,107.8040759,2021-12-20T14:40:20.000Z,339554,TRUE,2021-12-20T14:10:29.000Z
63,209,A,invalid,648,pomodoro,left_mismatch,107.8040759,2021-12-20T14:40:20.000Z,339554,TRUE,2021-12-20T14:10:29.000Z
64,19,A,valid,732,termometro,left_match,107.8040759,2021-12-20T14:40:20.000Z,339554,TRUE,2021-12-20T14:10:29.000Z
65,218,A,invalid,572,2013,left_mismatch,107.8040759,2021-12-20T14:40:20.000Z,339554,TRUE,2021-12-20T14:10:29.000Z
66,53,A,invalid,650,pomodoro,left_match,107.8040759,2021-12-20T14:40:20.000Z,339554,TRUE,2021-12-20T14:10:29.000Z
67,155,L,invalid,487,2058,right_match,107.8040759,2021-12-20T14:40:20.000Z,339554,TRUE,2021-12-20T14:10:29.000Z
68,152,L,invalid,1046,2044,right_match,107.8040759,2021-12-20T14:40:20.000Z,339554,TRUE,2021-12-20T14:10:29.000Z
69,3,A,valid,500,cane,left_match,107.8040759,2021-12-20T14:40:20.000Z,339554,TRUE,2021-12-20T14:10:29.000Z
70,153,L,invalid,560,2049,right_match,107.8040759,2021-12-20T14:40:20.000Z,339554,TRUE,2021-12-20T14:10:29.000Z
71,251,L,valid,521,telecomando,right_mismatch,107.8040759,2021-12-20T14:40:20.000Z,339554,TRUE,2021-12-20T14:10:29.000Z
72,283,L,invalid,564,mucca,right_mismatch,107.8040759,2021-12-20T14:40:20.000Z,339554,TRUE,2021-12-20T14:10:29.000Z
73,87,L,valid,541,melone,right_match,107.8040759,2021-12-20T14:40:20.000Z,339554,TRUE,2021-12-20T14:10:29.000Z
74,8,A,valid,642,mandorla,left_match,107.8040759,2021-12-20T14:40:20.000Z,339554,TRUE,2021-12-20T14:10:29.000Z
75,203,A,invalid,651,mandorla,left_mismatch,107.8040759,2021-12-20T14:40:20.000Z,339554,TRUE,2021-12-20T14:10:29.000Z
76,121,L,invalid,553,cervo,right_match,107.8040759,2021-12-20T14:40:20.000Z,339554,TRUE,2021-12-20T14:10:29.000Z
77,219,A,invalid,624,2017,left_mismatch,107.8040759,2021-12-20T14:40:20.000Z,339554,TRUE,2021-12-20T14:10:29.000Z
78,116,L,valid,558,2058,right_match,107.8040759,2021-12-20T14:40:20.000Z,339554,TRUE,2021-12-20T14:10:29.000Z
79,145,L,invalid,561,2026,right_match,107.8040759,2021-12-20T14:40:20.000Z,339554,TRUE,2021-12-20T14:10:29.000Z
80,284,L,invalid,603,occhiali,right_mismatch,107.8040759,2021-12-20T14:40:20.000Z,339554,TRUE,2021-12-20T14:10:29.000Z
81,287,L,invalid,421,pomodoro,right_mismatch,107.8040759,2021-12-20T14:40:20.000Z,339554,TRUE,2021-12-20T14:10:29.000Z
82,169,A,valid,558,pistola,left_mismatch,107.8040759,2021-12-20T14:40:20.000Z,339554,TRUE,2021-12-20T14:10:29.000Z
83,305,L,invalid,616,2037,right_mismatch,107.8040759,2021-12-20T14:40:20.000Z,339554,TRUE,2021-12-20T14:10:29.000Z
84,157,A,valid,782,banana,left_mismatch,107.8040759,2021-12-20T14:40:20.000Z,339554,TRUE,2021-12-20T14:10:29.000Z
85,271,L,valid,478,2052,right_mismatch,107.8040759,2021-12-20T14:40:20.000Z,339554,TRUE,2021-12-20T14:10:29.000Z
86,241,L,valid,495,frullatore,right_mismatch,107.8040759,2021-12-20T14:40:20.000Z,339554,TRUE,2021-12-20T14:10:29.000Z
87,93,L,valid,567,rasoio,right_match,107.8040759,2021-12-20T14:40:20.000Z,339554,TRUE,2021-12-20T14:10:29.000Z
88,82,L,valid,594,cervo,right_match,107.8040759,2021-12-20T14:40:20.000Z,339554,TRUE,2021-12-20T14:10:29.000Z
89,160,A,valid,668,cervo,left_mismatch,107.8040759,2021-12-20T14:40:20.000Z,339554,TRUE,2021-12-20T14:10:29.000Z
90,260,L,valid,578,2023,right_mismatch,107.8040759,2021-12-20T14:40:20.000Z,339554,TRUE,2021-12-20T14:10:29.000Z
91,171,A,valid,570,rasoio,left_mismatch,107.8040759,2021-12-20T14:40:20.000Z,339554,TRUE,2021-12-20T14:10:29.000Z
92,303,L,invalid,676,2034,right_mismatch,107.8040759,2021-12-20T14:40:20.000Z,339554,TRUE,2021-12-20T14:10:29.000Z
93,227,A,invalid,775,2037,left_mismatch,107.8040759,2021-12-20T14:40:20.000Z,339554,TRUE,2021-12-20T14:10:29.000Z
94,115,L,valid,466,2052,right_match,107.8040759,2021-12-20T14:40:20.000Z,339554,TRUE,2021-12-20T14:10:29.000Z
95,35,A,valid,664,2044,left_match,107.8040759,2021-12-20T14:40:20.000Z,339554,TRUE,2021-12-20T14:10:29.000Z
96,167,A,valid,566,occhiali,left_mismatch,107.8040759,2021-12-20T14:40:20.000Z,339554,TRUE,2021-12-20T14:10:29.000Z
97,256,L,valid,581,2010,right_mismatch,107.8040759,2021-12-20T14:40:20.000Z,339554,TRUE,2021-12-20T14:10:29.000Z
98,197,A,invalid,559,bicchiere,left_mismatch,107.8040759,2021-12-20T14:40:20.000Z,339554,TRUE,2021-12-20T14:10:29.000Z
99,138,L,invalid,680,2006,right_match,107.8040759,2021-12-20T14:40:20.000Z,339554,TRUE,2021-12-20T14:10:29.000Z
100,196,A,invalid,656,banana,left_mismatch,107.8040759,2021-12-20T14:40:20.000Z,339554,TRUE,2021-12-20T14:10:29.000Z
101,129,L,invalid,510,pinza,right_match,107.8040759,2021-12-20T14:40:20.000Z,339554,TRUE,2021-12-20T14:10:29.000Z
102,240,L,valid,472,coniglio,right_mismatch,107.8040759,2021-12-20T14:40:20.000Z,339554,TRUE,2021-12-20T14:10:29.000Z
103,151,L,invalid,480,2040,right_match,107.8040759,2021-12-20T14:40:20.000Z,339554,TRUE,2021-12-20T14:10:29.000Z
104,11,A,valid,539,occhiali,left_match,107.8040759,2021-12-20T14:40:20.000Z,339554,TRUE,2021-12-20T14:10:29.000Z
105,257,L,valid,641,2013,right_mismatch,107.8040759,2021-12-20T14:40:20.000Z,339554,TRUE,2021-12-20T14:10:29.000Z
106,304,L,invalid,613,2036,right_mismatch,107.8040759,2021-12-20T14:40:20.000Z,339554,TRUE,2021-12-20T14:10:29.000Z
107,194,,valid,0,2058,left_mismatch,107.8040759,2021-12-20T14:40:20.000Z,339554,TRUE,2021-12-20T14:10:29.000Z
108,123,L,invalid,505,coniglio,right_match,107.8040759,2021-12-20T14:40:20.000Z,339554,TRUE,2021-12-20T14:10:29.000Z
109,294,L,invalid,474,2006,right_mismatch,107.8040759,2021-12-20T14:40:20.000Z,339554,TRUE,2021-12-20T14:10:29.000Z
110,183,A,valid,570,2024,left_mismatch,107.8040759,2021-12-20T14:40:20.000Z,339554,TRUE,2021-12-20T14:10:29.000Z
111,102,L,valid,516,2017,right_match,107.8040759,2021-12-20T14:40:20.000Z,339554,TRUE,2021-12-20T14:10:29.000Z
112,108,L,valid,2555,2034,right_match,107.8040759,2021-12-20T14:40:20.000Z,339554,TRUE,2021-12-20T14:10:29.000Z
113,14,A,valid,434,pomodoro,left_match,107.8040759,2021-12-20T14:40:20.000Z,339554,TRUE,2021-12-20T14:10:29.000Z
114,56,A,invalid,584,telecomando,left_match,107.8040759,2021-12-20T14:40:20.000Z,339554,TRUE,2021-12-20T14:10:29.000Z
115,131,L,invalid,418,pomodoro,right_match,107.8040759,2021-12-20T14:40:20.000Z,339554,TRUE,2021-12-20T14:10:29.000Z
116,69,A,invalid,557,2034,left_match,107.8040759,2021-12-20T14:40:20.000Z,339554,TRUE,2021-12-20T14:10:29.000Z
117,235,L,valid,482,banana,right_mismatch,107.8040759,2021-12-20T14:40:20.000Z,339554,TRUE,2021-12-20T14:10:29.000Z
118,221,A,invalid,577,2023,left_mismatch,107.8040759,2021-12-20T14:40:20.000Z,339554,TRUE,2021-12-20T14:10:29.000Z
119,45,A,invalid,571,coniglio,left_match,107.8040759,2021-12-20T14:40:20.000Z,339554,TRUE,2021-12-20T14:10:29.000Z
120,214,A,invalid,727,termometro,left_mismatch,107.8040759,2021-12-20T14:40:20.000Z,339554,TRUE,2021-12-20T14:10:29.000Z
121,109,L,valid,479,2036,right_match,107.8040759,2021-12-20T14:40:20.000Z,339554,TRUE,2021-12-20T14:10:29.000Z
122,23,A,valid,520,2013,left_match,107.8040759,2021-12-20T14:40:20.000Z,339554,TRUE,2021-12-20T14:10:29.000Z
123,41,A,invalid,615,bicchiere,left_match,107.8040759,2021-12-20T14:40:20.000Z,339554,TRUE,2021-12-20T14:10:29.000Z
124,141,L,invalid,580,2017,right_match,107.8040759,2021-12-20T14:40:20.000Z,339554,TRUE,2021-12-20T14:10:29.000Z
125,216,A,invalid,587,2006,left_mismatch,107.8040759,2021-12-20T14:40:20.000Z,339554,TRUE,2021-12-20T14:10:29.000Z
126,192,A,valid,593,2049,left_mismatch,107.8040759,2021-12-20T14:40:20.000Z,339554,TRUE,2021-12-20T14:10:29.000Z
127,42,A,invalid,575,cane,left_match,107.8040759,2021-12-20T14:40:20.000Z,339554,TRUE,2021-12-20T14:10:29.000Z
128,21,A,valid,552,2006,left_match,107.8040759,2021-12-20T14:40:20.000Z,339554,TRUE,2021-12-20T14:10:29.000Z
129,148,L,invalid,560,2036,right_match,107.8040759,2021-12-20T14:40:20.000Z,339554,TRUE,2021-12-20T14:10:29.000Z
130,309,L,invalid,569,2049,right_mismatch,107.8040759,2021-12-20T14:40:20.000Z,339554,TRUE,2021-12-20T14:10:29.000Z
131,178,A,valid,483,2010,left_mismatch,107.8040759,2021-12-20T14:40:20.000Z,339554,TRUE,2021-12-20T14:10:29.000Z
132,33,A,valid,496,2039,left_match,107.8040759,2021-12-20T14:40:20.000Z,339554,TRUE,2021-12-20T14:10:29.000Z
133,1,A,valid,489,banana,left_match,107.8040759,2021-12-20T14:40:20.000Z,339554,TRUE,2021-12-20T14:10:29.000Z
134,258,L,valid,518,2017,right_mismatch,107.8040759,2021-12-20T14:40:20.000Z,339554,TRUE,2021-12-20T14:10:29.000Z
135,262,L,valid,489,2026,right_mismatch,107.8040759,2021-12-20T14:40:20.000Z,339554,TRUE,2021-12-20T14:10:29.000Z
136,100,L,valid,566,2010,right_match,107.8040759,2021-12-20T14:40:20.000Z,339554,TRUE,2021-12-20T14:10:29.000Z
137,64,A,invalid,579,2019,left_match,107.8040759,2021-12-20T14:40:20.000Z,339554,TRUE,2021-12-20T14:10:29.000Z
138,213,A,invalid,703,telefono,left_mismatch,107.8040759,2021-12-20T14:40:20.000Z,339554,TRUE,2021-12-20T14:10:29.000Z
139,223,A,invalid,782,2026,left_mismatch,107.8040759,2021-12-20T14:40:20.000Z,339554,TRUE,2021-12-20T14:10:29.000Z
140,295,L,invalid,523,2010,right_mismatch,107.8040759,2021-12-20T14:40:20.000Z,339554,TRUE,2021-12-20T14:10:29.000Z
141,190,A,valid,492,2040,left_mismatch,107.8040759,2021-12-20T14:40:20.000Z,339554,TRUE,2021-12-20T14:10:29.000Z
142,168,A,valid,219,pinza,left_mismatch,107.8040759,2021-12-20T14:40:20.000Z,339554,TRUE,2021-12-20T14:10:29.000Z
143,310,L,invalid,554,2052,right_mismatch,107.8040759,2021-12-20T14:40:20.000Z,339554,TRUE,2021-12-20T14:10:29.000Z
144,48,A,invalid,521,melone,left_match,107.8040759,2021-12-20T14:40:20.000Z,339554,TRUE,2021-12-20T14:10:29.000Z
1,1,,,,,,,2021-12-20T14:40:20.000Z,339554,TRUE,2021-12-20T14:10:29.000Z
1,1,,,,,,,2021-12-20T14:40:20.000Z,339554,TRUE,2021-12-20T14:10:29.000Z
1,1,,,,,,,2021-12-20T14:40:38.000Z,339553,TRUE,2021-12-20T14:18:20.000Z
1,12,A,valid,947,pinza,left_match,65.39699634,2021-12-20T14:40:38.000Z,339553,TRUE,2021-12-20T14:18:20.000Z
2,101,L,valid,511,2013,right_match,65.39699634,2021-12-20T14:40:38.000Z,339553,TRUE,2021-12-20T14:18:20.000Z
3,93,L,valid,381,rasoio,right_match,65.39699634,2021-12-20T14:40:38.000Z,339553,TRUE,2021-12-20T14:18:20.000Z
4,105,L,valid,492,2024,right_match,65.39699634,2021-12-20T14:40:38.000Z,339553,TRUE,2021-12-20T14:18:20.000Z
5,259,L,valid,408,2019,right_mismatch,65.39699634,2021-12-20T14:40:38.000Z,339553,TRUE,2021-12-20T14:18:20.000Z
6,248,L,valid,413,pomodoro,right_mismatch,65.39699634,2021-12-20T14:40:38.000Z,339553,TRUE,2021-12-20T14:18:20.000Z
7,266,L,valid,503,2037,right_mismatch,65.39699634,2021-12-20T14:40:38.000Z,339553,TRUE,2021-12-20T14:18:20.000Z
8,144,L,invalid,613,2024,right_match,65.39699634,2021-12-20T14:40:38.000Z,339553,TRUE,2021-12-20T14:18:20.000Z
9,205,A,invalid,422,mucca,left_mismatch,65.39699634,2021-12-20T14:40:38.000Z,339553,TRUE,2021-12-20T14:18:20.000Z
10,278,L,invalid,571,chiave,right_mismatch,65.39699634,2021-12-20T14:40:38.000Z,339553,TRUE,2021-12-20T14:18:20.000Z
11,255,L,valid,558,2006,right_mismatch,65.39699634,2021-12-20T14:40:38.000Z,339553,TRUE,2021-12-20T14:18:20.000Z
12,38,A,valid,590,2058,left_match,65.39699634,2021-12-20T14:40:38.000Z,339553,TRUE,2021-12-20T14:18:20.000Z
13,186,A,valid,587,2034,left_mismatch,65.39699634,2021-12-20T14:40:38.000Z,339553,TRUE,2021-12-20T14:18:20.000Z
14,28,A,valid,617,2026,left_match,65.39699634,2021-12-20T14:40:38.000Z,339553,TRUE,2021-12-20T14:18:20.000Z
15,85,L,valid,477,frullatore,right_match,65.39699634,2021-12-20T14:40:38.000Z,339553,TRUE,2021-12-20T14:18:20.000Z
16,14,A,valid,428,pomodoro,left_match,65.39699634,2021-12-20T14:40:38.000Z,339553,TRUE,2021-12-20T14:18:20.000Z
17,306,A,invalid,363,2039,right_mismatch,65.39699634,2021-12-20T14:40:38.000Z,339553,TRUE,2021-12-20T14:18:20.000Z
18,223,A,invalid,521,2026,left_mismatch,65.39699634,2021-12-20T14:40:38.000Z,339553,TRUE,2021-12-20T14:18:20.000Z
19,126,L,invalid,522,melone,right_match,65.39699634,2021-12-20T14:40:38.000Z,339553,TRUE,2021-12-20T14:18:20.000Z
20,122,L,invalid,492,chiave,right_match,65.39699634,2021-12-20T14:40:38.000Z,339553,TRUE,2021-12-20T14:18:20.000Z
21,146,L,invalid,521,2030,right_match,65.39699634,2021-12-20T14:40:38.000Z,339553,TRUE,2021-12-20T14:18:20.000Z
22,3,A,valid,574,cane,left_match,65.39699634,2021-12-20T14:40:38.000Z,339553,TRUE,2021-12-20T14:18:20.000Z
23,21,A,valid,589,2006,left_match,65.39699634,2021-12-20T14:40:38.000Z,339553,TRUE,2021-12-20T14:18:20.000Z
24,270,L,valid,478,2049,right_mismatch,65.39699634,2021-12-20T14:40:38.000Z,339553,TRUE,2021-12-20T14:18:20.000Z
25,41,A,invalid,509,bicchiere,left_match,65.39699634,2021-12-20T14:40:38.000Z,339553,TRUE,2021-12-20T14:18:20.000Z
26,283,L,invalid,560,mucca,right_mismatch,65.39699634,2021-12-20T14:40:38.000Z,339553,TRUE,2021-12-20T14:18:20.000Z
27,32,A,valid,459,2037,left_match,65.39699634,2021-12-20T14:40:38.000Z,339553,TRUE,2021-12-20T14:18:20.000Z
28,51,A,invalid,498,pinza,left_match,65.39699634,2021-12-20T14:40:38.000Z,339553,TRUE,2021-12-20T14:18:20.000Z
29,237,L,valid,450,cane,right_mismatch,65.39699634,2021-12-20T14:40:38.000Z,339553,TRUE,2021-12-20T14:18:20.000Z
30,127,L,invalid,575,mucca,right_match,65.39699634,2021-12-20T14:40:38.000Z,339553,TRUE,2021-12-20T14:18:20.000Z
31,246,L,valid,495,pinza,right_mismatch,65.39699634,2021-12-20T14:40:38.000Z,339553,TRUE,2021-12-20T14:18:20.000Z
32,261,L,valid,476,2024,right_mismatch,65.39699634,2021-12-20T14:40:38.000Z,339553,TRUE,2021-12-20T14:18:20.000Z
33,311,L,invalid,498,2058,right_mismatch,65.39699634,2021-12-20T14:40:38.000Z,339553,TRUE,2021-12-20T14:18:20.000Z
34,224,A,invalid,533,2030,left_mismatch,65.39699634,2021-12-20T14:40:38.000Z,339553,TRUE,2021-12-20T14:18:20.000Z
35,291,L,invalid,600,telefono,right_mismatch,65.39699634,2021-12-20T14:40:38.000Z,339553,TRUE,2021-12-20T14:18:20.000Z
36,69,A,invalid,516,2034,left_match,65.39699634,2021-12-20T14:40:38.000Z,339553,TRUE,2021-12-20T14:18:20.000Z
37,297,L,invalid,526,2017,right_mismatch,65.39699634,2021-12-20T14:40:38.000Z,339553,TRUE,2021-12-20T14:18:20.000Z
38,53,A,invalid,397,pomodoro,left_match,65.39699634,2021-12-20T14:40:38.000Z,339553,TRUE,2021-12-20T14:18:20.000Z
39,303,L,invalid,444,2034,right_mismatch,65.39699634,2021-12-20T14:40:38.000Z,339553,TRUE,2021-12-20T14:18:20.000Z
40,302,L,invalid,460,2030,right_mismatch,65.39699634,2021-12-20T14:40:38.000Z,339553,TRUE,2021-12-20T14:18:20.000Z
41,138,L,invalid,587,2006,right_match,65.39699634,2021-12-20T14:40:38.000Z,339553,TRUE,2021-12-20T14:18:20.000Z
42,25,A,valid,474,2019,left_match,65.39699634,2021-12-20T14:40:38.000Z,339553,TRUE,2021-12-20T14:18:20.000Z
43,118,L,invalid,813,banana,right_match,65.39699634,2021-12-20T14:40:38.000Z,339553,TRUE,2021-12-20T14:18:20.000Z
44,221,A,invalid,805,2023,left_mismatch,65.39699634,2021-12-20T14:40:38.000Z,339553,TRUE,2021-12-20T14:18:20.000Z
45,68,A,invalid,566,2030,left_match,65.39699634,2021-12-20T14:40:38.000Z,339553,TRUE,2021-12-20T14:18:20.000Z
46,131,L,invalid,471,pomodoro,right_match,65.39699634,2021-12-20T14:40:38.000Z,339553,TRUE,2021-12-20T14:18:20.000Z
47,100,L,valid,513,2010,right_match,65.39699634,2021-12-20T14:40:38.000Z,339553,TRUE,2021-12-20T14:18:20.000Z
48,264,L,valid,470,2034,right_mismatch,65.39699634,2021-12-20T14:40:38.000Z,339553,TRUE,2021-12-20T14:18:20.000Z
49,77,A,invalid,738,2058,left_match,65.39699634,2021-12-20T14:40:38.000Z,339553,TRUE,2021-12-20T14:18:20.000Z
50,47,A,invalid,708,mandorla,left_match,65.39699634,2021-12-20T14:40:38.000Z,339553,TRUE,2021-12-20T14:18:20.000Z
51,177,A,valid,731,2006,left_mismatch,65.39699634,2021-12-20T14:40:38.000Z,339553,TRUE,2021-12-20T14:18:20.000Z
52,289,L,invalid,452,tartaruga,right_mismatch,65.39699634,2021-12-20T14:40:38.000Z,339553,TRUE,2021-12-20T14:18:20.000Z
53,1,A,valid,544,banana,left_match,65.39699634,2021-12-20T14:40:38.000Z,339553,TRUE,2021-12-20T14:18:20.000Z
54,182,A,valid,528,2023,left_mismatch,65.39699634,2021-12-20T14:40:38.000Z,339553,TRUE,2021-12-20T14:18:20.000Z
55,232,A,invalid,524,2052,left_mismatch,65.39699634,2021-12-20T14:40:38.000Z,339553,TRUE,2021-12-20T14:18:20.000Z
56,141,L,invalid,404,2017,right_match,65.39699634,2021-12-20T14:40:38.000Z,339553,TRUE,2021-12-20T14:18:20.000Z
57,254,L,valid,458,uva,right_mismatch,65.39699634,2021-12-20T14:40:38.000Z,339553,TRUE,2021-12-20T14:18:20.000Z
58,229,A,invalid,699,2040,left_mismatch,65.39699634,2021-12-20T14:40:38.000Z,339553,TRUE,2021-12-20T14:18:20.000Z
59,213,A,invalid,704,telefono,left_mismatch,65.39699634,2021-12-20T14:40:38.000Z,339553,TRUE,2021-12-20T14:18:20.000Z
60,137,L,invalid,501,uva,right_match,65.39699634,2021-12-20T14:40:38.000Z,339553,TRUE,2021-12-20T14:18:20.000Z
61,31,A,valid,375,2036,left_match,65.39699634,2021-12-20T14:40:38.000Z,339553,TRUE,2021-12-20T14:18:20.000Z
62,274,L,invalid,388,banana,right_mismatch,65.39699634,2021-12-20T14:40:38.000Z,339553,TRUE,2021-12-20T14:18:20.000Z
63,265,L,valid,470,2036,right_mismatch,65.39699634,2021-12-20T14:40:38.000Z,339553,TRUE,2021-12-20T14:18:20.000Z
64,74,L,invalid,621,2044,left_match,65.39699634,2021-12-20T14:40:38.000Z,339553,TRUE,2021-12-20T14:18:20.000Z
65,34,A,valid,441,2040,left_match,65.39699634,2021-12-20T14:40:38.000Z,339553,TRUE,2021-12-20T14:18:20.000Z
66,96,L,valid,510,telefono,right_match,65.39699634,2021-12-20T14:40:38.000Z,339553,TRUE,2021-12-20T14:18:20.000Z
67,238,L,valid,601,cervo,right_mismatch,65.39699634,2021-12-20T14:40:38.000Z,339553,TRUE,2021-12-20T14:18:20.000Z
68,97,L,valid,401,termometro,right_match,65.39699634,2021-12-20T14:40:38.000Z,339553,TRUE,2021-12-20T14:18:20.000Z
69,123,L,invalid,506,coniglio,right_match,65.39699634,2021-12-20T14:40:38.000Z,339553,TRUE,2021-12-20T14:18:20.000Z
70,65,A,invalid,531,2023,left_match,65.39699634,2021-12-20T14:40:38.000Z,339553,TRUE,2021-12-20T14:18:20.000Z
71,305,L,invalid,491,2037,right_mismatch,65.39699634,2021-12-20T14:40:38.000Z,339553,TRUE,2021-12-20T14:18:20.000Z
72,61,L,invalid,169,2010,left_match,65.39699634,2021-12-20T14:40:38.000Z,339553,TRUE,2021-12-20T14:18:20.000Z
73,269,L,valid,534,2044,right_mismatch,65.39699634,2021-12-20T14:40:38.000Z,339553,TRUE,2021-12-20T14:18:20.000Z
74,307,L,invalid,595,2040,right_mismatch,65.39699634,2021-12-20T14:40:38.000Z,339553,TRUE,2021-12-20T14:18:20.000Z
75,142,L,invalid,621,2019,right_match,65.39699634,2021-12-20T14:40:38.000Z,339553,TRUE,2021-12-20T14:18:20.000Z
76,279,L,invalid,460,coniglio,right_mismatch,65.39699634,2021-12-20T14:40:38.000Z,339553,TRUE,2021-12-20T14:18:20.000Z
77,281,L,invalid,574,mandorla,right_mismatch,65.39699634,2021-12-20T14:40:38.000Z,339553,TRUE,2021-12-20T14:18:20.000Z
78,86,L,valid,599,mandorla,right_match,65.39699634,2021-12-20T14:40:38.000Z,339553,TRUE,2021-12-20T14:18:20.000Z
79,80,L,valid,565,bicchiere,right_match,65.39699634,2021-12-20T14:40:38.000Z,339553,TRUE,2021-12-20T14:18:20.000Z
80,189,A,valid,403,2039,left_mismatch,65.39699634,2021-12-20T14:40:38.000Z,339553,TRUE,2021-12-20T14:18:20.000Z
81,94,L,valid,373,tartaruga,right_match,65.39699634,2021-12-20T14:40:38.000Z,339553,TRUE,2021-12-20T14:18:20.000Z
82,153,L,invalid,489,2049,right_match,65.39699634,2021-12-20T14:40:38.000Z,339553,TRUE,2021-12-20T14:18:20.000Z
83,243,L,valid,394,melone,right_mismatch,65.39699634,2021-12-20T14:40:38.000Z,339553,TRUE,2021-12-20T14:18:20.000Z
84,210,A,invalid,633,rasoio,left_mismatch,65.39699634,2021-12-20T14:40:38.000Z,339553,TRUE,2021-12-20T14:18:20.000Z
85,49,A,invalid,565,mucca,left_match,65.39699634,2021-12-20T14:40:38.000Z,339553,TRUE,2021-12-20T14:18:20.000Z
86,192,A,valid,625,2049,left_mismatch,65.39699634,2021-12-20T14:40:38.000Z,339553,TRUE,2021-12-20T14:18:20.000Z
87,286,L,invalid,499,pistola,right_mismatch,65.39699634,2021-12-20T14:40:38.000Z,339553,TRUE,2021-12-20T14:18:20.000Z
88,22,A,valid,735,2010,left_match,65.39699634,2021-12-20T14:40:38.000Z,339553,TRUE,2021-12-20T14:18:20.000Z
89,110,L,valid,360,2037,right_match,65.39699634,2021-12-20T14:40:38.000Z,339553,TRUE,2021-12-20T14:18:20.000Z
90,84,L,valid,339,coniglio,right_match,65.39699634,2021-12-20T14:40:38.000Z,339553,TRUE,2021-12-20T14:18:20.000Z
91,217,A,invalid,526,2010,left_mismatch,65.39699634,2021-12-20T14:40:38.000Z,339553,TRUE,2021-12-20T14:18:20.000Z
92,95,L,valid,337,telecomando,right_match,65.39699634,2021-12-20T14:40:38.000Z,339553,TRUE,2021-12-20T14:18:20.000Z
93,236,L,valid,418,bicchiere,right_mismatch,65.39699634,2021-12-20T14:40:38.000Z,339553,TRUE,2021-12-20T14:18:20.000Z
94,99,L,valid,414,2006,right_match,65.39699634,2021-12-20T14:40:38.000Z,339553,TRUE,2021-12-20T14:18:20.000Z
95,249,L,valid,420,rasoio,right_mismatch,65.39699634,2021-12-20T14:40:38.000Z,339553,TRUE,2021-12-20T14:18:20.000Z
96,52,L,invalid,126,pistola,left_match,65.39699634,2021-12-20T14:40:38.000Z,339553,TRUE,2021-12-20T14:18:20.000Z
97,150,A,invalid,248,2039,right_match,65.39699634,2021-12-20T14:40:38.000Z,339553,TRUE,2021-12-20T14:18:20.000Z
98,83,L,valid,576,chiave,right_match,65.39699634,2021-12-20T14:40:38.000Z,339553,TRUE,2021-12-20T14:18:20.000Z
99,271,L,valid,418,2052,right_mismatch,65.39699634,2021-12-20T14:40:38.000Z,339553,TRUE,2021-12-20T14:18:20.000Z
100,268,L,valid,307,2040,right_mismatch,65.39699634,2021-12-20T14:40:38.000Z,339553,TRUE,2021-12-20T14:18:20.000Z
101,36,A,valid,513,2049,left_match,65.39699634,2021-12-20T14:40:38.000Z,339553,TRUE,2021-12-20T14:18:20.000Z
102,44,A,invalid,508,chiave,left_match,65.39699634,2021-12-20T14:40:38.000Z,339553,TRUE,2021-12-20T14:18:20.000Z
103,262,L,valid,480,2026,right_mismatch,65.39699634,2021-12-20T14:40:38.000Z,339553,TRUE,2021-12-20T14:18:20.000Z
104,176,A,valid,484,uva,left_mismatch,65.39699634,2021-12-20T14:40:38.000Z,339553,TRUE,2021-12-20T14:18:20.000Z
105,151,L,invalid,417,2040,right_match,65.39699634,2021-12-20T14:40:38.000Z,339553,TRUE,2021-12-20T14:18:20.000Z
106,215,A,invalid,663,uva,left_mismatch,65.39699634,2021-12-20T14:40:38.000Z,339553,TRUE,2021-12-20T14:18:20.000Z
107,129,L,invalid,541,pinza,right_match,65.39699634,2021-12-20T14:40:38.000Z,339553,TRUE,2021-12-20T14:18:20.000Z
108,284,L,invalid,500,occhiali,right_mismatch,65.39699634,2021-12-20T14:40:38.000Z,339553,TRUE,2021-12-20T14:18:20.000Z
109,157,A,valid,505,banana,left_mismatch,65.39699634,2021-12-20T14:40:38.000Z,339553,TRUE,2021-12-20T14:18:20.000Z
110,172,A,valid,532,tartaruga,left_mismatch,65.39699634,2021-12-20T14:40:38.000Z,339553,TRUE,2021-12-20T14:18:20.000Z
111,15,A,valid,607,rasoio,left_match,65.39699634,2021-12-20T14:40:38.000Z,339553,TRUE,2021-12-20T14:18:20.000Z
112,240,L,valid,390,coniglio,right_mismatch,65.39699634,2021-12-20T14:40:38.000Z,339553,TRUE,2021-12-20T14:18:20.000Z
113,272,L,valid,570,2058,right_mismatch,65.39699634,2021-12-20T14:40:38.000Z,339553,TRUE,2021-12-20T14:18:20.000Z
114,304,L,invalid,497,2036,right_mismatch,65.39699634,2021-12-20T14:40:38.000Z,339553,TRUE,2021-12-20T14:18:20.000Z
115,107,L,valid,301,2030,right_match,65.39699634,2021-12-20T14:40:38.000Z,339553,TRUE,2021-12-20T14:18:20.000Z
116,136,L,invalid,561,termometro,right_match,65.39699634,2021-12-20T14:40:38.000Z,339553,TRUE,2021-12-20T14:18:20.000Z
117,4,A,valid,503,cervo,left_match,65.39699634,2021-12-20T14:40:38.000Z,339553,TRUE,2021-12-20T14:18:20.000Z
118,67,A,invalid,656,2026,left_match,65.39699634,2021-12-20T14:40:38.000Z,339553,TRUE,2021-12-20T14:18:20.000Z
119,219,A,invalid,559,2017,left_mismatch,65.39699634,2021-12-20T14:40:38.000Z,339553,TRUE,2021-12-20T14:18:20.000Z
120,197,A,invalid,614,bicchiere,left_mismatch,65.39699634,2021-12-20T14:40:38.000Z,339553,TRUE,2021-12-20T14:18:20.000Z
121,88,L,valid,379,mucca,right_match,65.39699634,2021-12-20T14:40:38.000Z,339553,TRUE,2021-12-20T14:18:20.000Z
122,253,L,valid,463,termometro,right_mismatch,65.39699634,2021-12-20T14:40:38.000Z,339553,TRUE,2021-12-20T14:18:20.000Z
123,258,L,valid,426,2017,right_mismatch,65.39699634,2021-12-20T14:40:38.000Z,339553,TRUE,2021-12-20T14:18:20.000Z
124,228,A,invalid,539,2039,left_mismatch,65.39699634,2021-12-20T14:40:38.000Z,339553,TRUE,2021-12-20T14:18:20.000Z
125,11,A,valid,503,occhiali,left_match,65.39699634,2021-12-20T14:40:38.000Z,339553,TRUE,2021-12-20T14:18:20.000Z
126,75,A,invalid,506,2049,left_match,65.39699634,2021-12-20T14:40:38.000Z,339553,TRUE,2021-12-20T14:18:20.000Z
127,64,A,invalid,561,2019,left_match,65.39699634,2021-12-20T14:40:38.000Z,339553,TRUE,2021-12-20T14:18:20.000Z
128,165,A,valid,543,melone,left_mismatch,65.39699634,2021-12-20T14:40:38.000Z,339553,TRUE,2021-12-20T14:18:20.000Z
129,7,A,valid,482,frullatore,left_match,65.39699634,2021-12-20T14:40:38.000Z,339553,TRUE,2021-12-20T14:18:20.000Z
130,206,A,invalid,492,occhiali,left_mismatch,65.39699634,2021-12-20T14:40:38.000Z,339553,TRUE,2021-12-20T14:18:20.000Z
131,201,A,invalid,499,coniglio,left_mismatch,65.39699634,2021-12-20T14:40:38.000Z,339553,TRUE,2021-12-20T14:18:20.000Z
132,40,A,invalid,462,banana,left_match,65.39699634,2021-12-20T14:40:38.000Z,339553,TRUE,2021-12-20T14:18:20.000Z
133,159,A,valid,378,cane,left_mismatch,65.39699634,2021-12-20T14:40:38.000Z,339553,TRUE,2021-12-20T14:18:20.000Z
134,39,A,valid,494,2059,left_match,65.39699634,2021-12-20T14:40:38.000Z,339553,TRUE,2021-12-20T14:18:20.000Z
135,37,A,valid,439,2052,left_match,65.39699634,2021-12-20T14:40:38.000Z,339553,TRUE,2021-12-20T14:18:20.000Z
136,203,A,invalid,497,mandorla,left_mismatch,65.39699634,2021-12-20T14:40:38.000Z,339553,TRUE,2021-12-20T14:18:20.000Z
137,250,L,valid,493,tartaruga,right_mismatch,65.39699634,2021-12-20T14:40:38.000Z,339553,TRUE,2021-12-20T14:18:20.000Z
138,204,A,invalid,525,melone,left_mismatch,65.39699634,2021-12-20T14:40:38.000Z,339553,TRUE,2021-12-20T14:18:20.000Z
139,212,A,invalid,495,telecomando,left_mismatch,65.39699634,2021-12-20T14:40:38.000Z,339553,TRUE,2021-12-20T14:18:20.000Z
140,301,L,invalid,513,2026,right_mismatch,65.39699634,2021-12-20T14:40:38.000Z,339553,TRUE,2021-12-20T14:18:20.000Z
141,108,L,valid,411,2034,right_match,65.39699634,2021-12-20T14:40:38.000Z,339553,TRUE,2021-12-20T14:18:20.000Z
142,193,A,valid,324,2052,left_mismatch,65.39699634,2021-12-20T14:40:38.000Z,339553,TRUE,2021-12-20T14:18:20.000Z
143,9,A,valid,345,melone,left_match,65.39699634,2021-12-20T14:40:38.000Z,339553,TRUE,2021-12-20T14:18:20.000Z
